[
    {
        "path": "./data/clinical-trials/sdtm/ae.csv",
        "file": "ae.csv",
        "name": "ae",
        "nRows": 357,
        "cols": [
            "USUBJID",
            "AESEQ",
            "AESTDT",
            "AESTDY",
            "AEENDT",
            "AEENDY",
            "AETERM",
            "AEDECOD",
            "AEBODSYS",
            "AESER",
            "AEONGO",
            "AESEV",
            "AEREL",
            "AEOUT"
        ],
        "nCols": 14
    },
    {
        "path": "./data/clinical-trials/sdtm/cm.csv",
        "file": "cm.csv",
        "name": "cm",
        "nRows": 307,
        "cols": [
            "USUBJID",
            "CMSEQ",
            "CMSTDT",
            "CMSTDY",
            "CMENDT",
            "CMENDY",
            "CMTRT",
            "PREFTERM",
            "ATCTEXT2",
            "CMONGO",
            "CMDOSE",
            "CMROUTE",
            "CMINDC"
        ],
        "nCols": 13
    },
    {
        "path": "./data/clinical-trials/sdtm/dm.csv",
        "file": "dm.csv",
        "name": "dm",
        "nRows": 150,
        "cols": [
            "USUBJID",
            "SITE",
            "SITEID",
            "AGE",
            "SEX",
            "RACE",
            "ARM",
            "ARMCD",
            "SBJTSTAT",
            "RFSTDTC",
            "RFENDTC",
            "RFENDY",
            "SAFFL",
            "SAFFN"
        ],
        "nCols": 14
    },
    {
        "path": "./data/clinical-trials/sdtm/lb.csv",
        "file": "lb.csv",
        "name": "lb",
        "nRows": 10096,
        "cols": [
            "USUBJID",
            "VISIT",
            "VISITNUM",
            "LBDT",
            "LBDY",
            "LBCAT",
            "LBTEST",
            "LBSTRESU",
            "LBSTRESN",
            "LBSTNRLO",
            "LBSTNRHI"
        ],
        "nCols": 11
    },
    {
        "path": "./data/clinical-trials/sdtm/sv.csv",
        "file": "sv.csv",
        "name": "sv",
        "nRows": 1202,
        "cols": [
            "USUBJID",
            "VISIT",
            "VISITNUM",
            "SVDT",
            "SVDY",
            "SVSTATUS"
        ],
        "nCols": 6
    },
    {
        "path": "./data/clinical-trials/sdtm/vs.csv",
        "file": "vs.csv",
        "name": "vs",
        "nRows": 3155,
        "cols": [
            "USUBJID",
            "VISIT",
            "VISITNUM",
            "VSDT",
            "VSDY",
            "VSCAT",
            "VSTEST",
            "VSSTRESU",
            "VSSTRESN",
            "VSSTNRLO",
            "VSSTNRHI"
        ],
        "nCols": 11
    }
]