"USUBJID","VISIT","VISITNUM","LBDT","LBDY","LBCAT","LBTEST","LBSTRESU","LBSTRESN","LBSTNRLO","LBSTNRHI"
"01-001","Screening","0","2015-05-21","1","Serum","Albumin","g/L",48.8951754817963,"35","55"
"01-001","Screening","0","2015-05-21","1","Serum","Alkaline phosphatase (ALP)","μkat/L",0.353441557756458,"0.5","1.5"
"01-001","Screening","0","2015-05-21","1","Serum","Aminotransferase, alanine (ALT)","pkat/L",0,"0","0.58"
"01-001","Screening","0","2015-05-21","1","Serum","Aminotransferase, aspartate (AST)","pkat/L",0.230454585959809,"0","0.58"
"01-001","Screening","0","2015-05-21","1","Serum","Calcium","mmol/L",2.40364284621797,"2.2","2.6"
"01-001","Screening","0","2015-05-21","1","Serum","Chloride","mmol/L",101.977738128482,"98","106"
"01-001","Screening","0","2015-05-21","1","Serum","Creatinine","μmol/L",54.9522524666975,"61.9","115"
"01-001","Screening","0","2015-05-21","1","Serum","Direct Bilirubin","μmol/L",3.17702878376026,"0","5.1"
"01-001","Screening","0","2015-05-21","1","Serum","IgE","mg/L",0.0607685666438798,"0.1","0.4"
"01-001","Screening","0","2015-05-21","1","Serum","Magnesium","mmol/L",0.671342726996378,"0.62","0.99"
"01-001","Screening","0","2015-05-21","1","Blood","Platelet count","x 109/L",73.9216799073289,"150","350"
"01-001","Screening","0","2015-05-21","1","Serum","Potassium","mmol/L",2.9714672889195,"3.5","5"
"01-001","Screening","0","2015-05-21","1","Blood","RBC count","x 1012 cells/L",5.73306802044415,"4.2","5.9"
"01-001","Screening","0","2015-05-21","1","Serum","Sodium","mmol/L",144.559968626885,"136","145"
"01-001","Screening","0","2015-05-21","1","Serum","Total Bilirubin","μmol/L",28.7068580552978,"5.1","20.5"
"01-001","Screening","0","2015-05-21","1","Blood","WBC count","x 109 cells/L",5.36456259077355,"4.5","11"
"01-001","Early Termination","6.9","2015-05-26","6","Serum","Albumin","g/L",53.6771105731966,"35","55"
"01-001","Early Termination","6.9","2015-05-26","6","Serum","Alkaline phosphatase (ALP)","μkat/L",0.617051970163285,"0.5","1.5"
"01-001","Early Termination","6.9","2015-05-26","6","Serum","Aminotransferase, alanine (ALT)","pkat/L",0.300926047510991,"0","0.58"
"01-001","Early Termination","6.9","2015-05-26","6","Serum","Aminotransferase, aspartate (AST)","pkat/L",0,"0","0.58"
"01-001","Early Termination","6.9","2015-05-26","6","Serum","Calcium","mmol/L",2.747644933767,"2.2","2.6"
"01-001","Early Termination","6.9","2015-05-26","6","Serum","Chloride","mmol/L",109.737192651894,"98","106"
"01-001","Early Termination","6.9","2015-05-26","6","Serum","Creatinine","μmol/L",31.7473259113718,"61.9","115"
"01-001","Early Termination","6.9","2015-05-26","6","Serum","Direct Bilirubin","μmol/L",1.83234574527008,"0","5.1"
"01-001","Early Termination","6.9","2015-05-26","6","Serum","IgE","mg/L",0.148341857697348,"0.1","0.4"
"01-001","Early Termination","6.9","2015-05-26","6","Serum","Magnesium","mmol/L",0.915498917650744,"0.62","0.99"
"01-001","Early Termination","6.9","2015-05-26","6","Blood","Platelet count","x 109/L",295.133147295951,"150","350"
"01-001","Early Termination","6.9","2015-05-26","6","Serum","Potassium","mmol/L",4.04035321731168,"3.5","5"
"01-001","Early Termination","6.9","2015-05-26","6","Blood","RBC count","x 1012 cells/L",4.52362139757257,"4.2","5.9"
"01-001","Early Termination","6.9","2015-05-26","6","Serum","Sodium","mmol/L",144.904381724821,"136","145"
"01-001","Early Termination","6.9","2015-05-26","6","Serum","Total Bilirubin","μmol/L",18.1608605968951,"5.1","20.5"
"01-001","Early Termination","6.9","2015-05-26","6","Blood","WBC count","x 109 cells/L",9.78481972051961,"4.5","11"
"01-002","Screening","0","2015-05-30","1","Serum","Albumin","g/L",50.6477376065677,"35","55"
"01-002","Screening","0","2015-05-30","1","Serum","Alkaline phosphatase (ALP)","μkat/L",0.96943733296846,"0.5","1.5"
"01-002","Screening","0","2015-05-30","1","Serum","Aminotransferase, alanine (ALT)","pkat/L",0.0987605029988369,"0","0.58"
"01-002","Screening","0","2015-05-30","1","Serum","Aminotransferase, aspartate (AST)","pkat/L",0.398684801032776,"0","0.58"
"01-002","Screening","0","2015-05-30","1","Serum","Calcium","mmol/L",2.68664699718718,"2.2","2.6"
"01-002","Screening","0","2015-05-30","1","Serum","Chloride","mmol/L",101.775787846845,"98","106"
"01-002","Screening","0","2015-05-30","1","Serum","Creatinine","μmol/L",63.5098720681291,"61.9","115"
"01-002","Screening","0","2015-05-30","1","Serum","Direct Bilirubin","μmol/L",0.117785498221554,"0","5.1"
"01-002","Screening","0","2015-05-30","1","Serum","IgE","mg/L",0.282980834483,"0.1","0.4"
"01-002","Screening","0","2015-05-30","1","Serum","Magnesium","mmol/L",1.06003938274269,"0.62","0.99"
"01-002","Screening","0","2015-05-30","1","Blood","Platelet count","x 109/L",210.526405581847,"150","350"
"01-002","Screening","0","2015-05-30","1","Serum","Potassium","mmol/L",4.66593579558087,"3.5","5"
"01-002","Screening","0","2015-05-30","1","Blood","RBC count","x 1012 cells/L",3.89772984219502,"4.2","5.9"
"01-002","Screening","0","2015-05-30","1","Serum","Sodium","mmol/L",144.038960616888,"136","145"
"01-002","Screening","0","2015-05-30","1","Serum","Total Bilirubin","μmol/L",14.4584676078576,"5.1","20.5"
"01-002","Screening","0","2015-05-30","1","Blood","WBC count","x 109 cells/L",,"4.5","11"
"01-002","Visit 1","1","2015-07-29","61","Serum","Albumin","g/L",40.9352865412019,"35","55"
"01-002","Visit 1","1","2015-07-29","61","Serum","Alkaline phosphatase (ALP)","μkat/L",1.03753773086815,"0.5","1.5"
"01-002","Visit 1","1","2015-07-29","61","Serum","Aminotransferase, alanine (ALT)","pkat/L",0,"0","0.58"
"01-002","Visit 1","1","2015-07-29","61","Serum","Aminotransferase, aspartate (AST)","pkat/L",0,"0","0.58"
"01-002","Visit 1","1","2015-07-29","61","Serum","Calcium","mmol/L",,"2.2","2.6"
"01-002","Visit 1","1","2015-07-29","61","Serum","Chloride","mmol/L",102.058360751085,"98","106"
"01-002","Visit 1","1","2015-07-29","61","Serum","Creatinine","μmol/L",83.7500879031514,"61.9","115"
"01-002","Visit 1","1","2015-07-29","61","Serum","Direct Bilirubin","μmol/L",1.93316006105932,"0","5.1"
"01-002","Visit 1","1","2015-07-29","61","Serum","IgE","mg/L",0.267821304243956,"0.1","0.4"
"01-002","Visit 1","1","2015-07-29","61","Serum","Magnesium","mmol/L",0.66411072342421,"0.62","0.99"
"01-002","Visit 1","1","2015-07-29","61","Blood","Platelet count","x 109/L",379.422736215712,"150","350"
"01-002","Visit 1","1","2015-07-29","61","Serum","Potassium","mmol/L",5.14411601922635,"3.5","5"
"01-002","Visit 1","1","2015-07-29","61","Blood","RBC count","x 1012 cells/L",5.29357870243644,"4.2","5.9"
"01-002","Visit 1","1","2015-07-29","61","Serum","Sodium","mmol/L",128.697698282931,"136","145"
"01-002","Visit 1","1","2015-07-29","61","Serum","Total Bilirubin","μmol/L",22.8563889839518,"5.1","20.5"
"01-002","Visit 1","1","2015-07-29","61","Blood","WBC count","x 109 cells/L",1.08220907759321,"4.5","11"
"01-002","Visit 2","2","2015-09-17","111","Serum","Albumin","g/L",49.7808297136377,"35","55"
"01-002","Visit 2","2","2015-09-17","111","Serum","Alkaline phosphatase (ALP)","μkat/L",0.904530281533516,"0.5","1.5"
"01-002","Visit 2","2","2015-09-17","111","Serum","Aminotransferase, alanine (ALT)","pkat/L",0.419277490110206,"0","0.58"
"01-002","Visit 2","2","2015-09-17","111","Serum","Aminotransferase, aspartate (AST)","pkat/L",,"0","0.58"
"01-002","Visit 2","2","2015-09-17","111","Serum","Calcium","mmol/L",2.39381305408797,"2.2","2.6"
"01-002","Visit 2","2","2015-09-17","111","Serum","Chloride","mmol/L",105.164704547483,"98","106"
"01-002","Visit 2","2","2015-09-17","111","Serum","Creatinine","μmol/L",72.1618402191612,"61.9","115"
"01-002","Visit 2","2","2015-09-17","111","Serum","Direct Bilirubin","μmol/L",1.2215754309901,"0","5.1"
"01-002","Visit 2","2","2015-09-17","111","Serum","IgE","mg/L",0.362410726928693,"0.1","0.4"
"01-002","Visit 2","2","2015-09-17","111","Serum","Magnesium","mmol/L",0.859837302250049,"0.62","0.99"
"01-002","Visit 2","2","2015-09-17","111","Blood","Platelet count","x 109/L",266.956197066623,"150","350"
"01-002","Visit 2","2","2015-09-17","111","Serum","Potassium","mmol/L",3.1431655630325,"3.5","5"
"01-002","Visit 2","2","2015-09-17","111","Blood","RBC count","x 1012 cells/L",5.30449288631539,"4.2","5.9"
"01-002","Visit 2","2","2015-09-17","111","Serum","Sodium","mmol/L",140.318374215466,"136","145"
"01-002","Visit 2","2","2015-09-17","111","Serum","Total Bilirubin","μmol/L",3.45226470818673,"5.1","20.5"
"01-002","Visit 2","2","2015-09-17","111","Blood","WBC count","x 109 cells/L",9.80758435683516,"4.5","11"
"01-003","Screening","0","2015-08-13","1","Serum","Albumin","g/L",42.9231432325227,"35","55"
"01-003","Screening","0","2015-08-13","1","Serum","Alkaline phosphatase (ALP)","μkat/L",1.27026248970029,"0.5","1.5"
"01-003","Screening","0","2015-08-13","1","Serum","Aminotransferase, alanine (ALT)","pkat/L",0.524351713432945,"0","0.58"
"01-003","Screening","0","2015-08-13","1","Serum","Aminotransferase, aspartate (AST)","pkat/L",0.357285727530329,"0","0.58"
"01-003","Screening","0","2015-08-13","1","Serum","Calcium","mmol/L",,"2.2","2.6"
"01-003","Screening","0","2015-08-13","1","Serum","Chloride","mmol/L",102.070454802248,"98","106"
"01-003","Screening","0","2015-08-13","1","Serum","Creatinine","μmol/L",68.9151216120385,"61.9","115"
"01-003","Screening","0","2015-08-13","1","Serum","Direct Bilirubin","μmol/L",4.90346160027636,"0","5.1"
"01-003","Screening","0","2015-08-13","1","Serum","IgE","mg/L",0.483463217915164,"0.1","0.4"
"01-003","Screening","0","2015-08-13","1","Serum","Magnesium","mmol/L",0.580954072233235,"0.62","0.99"
"01-003","Screening","0","2015-08-13","1","Blood","Platelet count","x 109/L",411.559540660714,"150","350"
"01-003","Screening","0","2015-08-13","1","Serum","Potassium","mmol/L",4.80061009624532,"3.5","5"
"01-003","Screening","0","2015-08-13","1","Blood","RBC count","x 1012 cells/L",3.76575681268297,"4.2","5.9"
"01-003","Screening","0","2015-08-13","1","Serum","Sodium","mmol/L",142.840314866839,"136","145"
"01-003","Screening","0","2015-08-13","1","Serum","Total Bilirubin","μmol/L",19.1554069127278,"5.1","20.5"
"01-003","Screening","0","2015-08-13","1","Blood","WBC count","x 109 cells/L",11.8172985497157,"4.5","11"
"01-003","Visit 1","1","2015-10-04","53","Serum","Albumin","g/L",40.4973596954642,"35","55"
"01-003","Visit 1","1","2015-10-04","53","Serum","Alkaline phosphatase (ALP)","μkat/L",1.46652826950021,"0.5","1.5"
"01-003","Visit 1","1","2015-10-04","53","Serum","Aminotransferase, alanine (ALT)","pkat/L",0.556524116745351,"0","0.58"
"01-003","Visit 1","1","2015-10-04","53","Serum","Aminotransferase, aspartate (AST)","pkat/L",0,"0","0.58"
"01-003","Visit 1","1","2015-10-04","53","Serum","Calcium","mmol/L",,"2.2","2.6"
"01-003","Visit 1","1","2015-10-04","53","Serum","Chloride","mmol/L",92.7189184478615,"98","106"
"01-003","Visit 1","1","2015-10-04","53","Serum","Creatinine","μmol/L",67.0390265713637,"61.9","115"
"01-003","Visit 1","1","2015-10-04","53","Serum","Direct Bilirubin","μmol/L",3.16978772090776,"0","5.1"
"01-003","Visit 1","1","2015-10-04","53","Serum","IgE","mg/L",0.338095648167025,"0.1","0.4"
"01-003","Visit 1","1","2015-10-04","53","Serum","Magnesium","mmol/L",,"0.62","0.99"
"01-003","Visit 1","1","2015-10-04","53","Blood","Platelet count","x 109/L",103.89990587582,"150","350"
"01-003","Visit 1","1","2015-10-04","53","Serum","Potassium","mmol/L",4.41529083870165,"3.5","5"
"01-003","Visit 1","1","2015-10-04","53","Blood","RBC count","x 1012 cells/L",5.28752266880987,"4.2","5.9"
"01-003","Visit 1","1","2015-10-04","53","Serum","Sodium","mmol/L",139.064678138318,"136","145"
"01-003","Visit 1","1","2015-10-04","53","Serum","Total Bilirubin","μmol/L",28.6434683510413,"5.1","20.5"
"01-003","Visit 1","1","2015-10-04","53","Blood","WBC count","x 109 cells/L",4.92069593003557,"4.5","11"
"01-003","Visit 2","2","2015-12-08","118","Serum","Albumin","g/L",30.4904182136382,"35","55"
"01-003","Visit 2","2","2015-12-08","118","Serum","Alkaline phosphatase (ALP)","μkat/L",1.29740444342686,"0.5","1.5"
"01-003","Visit 2","2","2015-12-08","118","Serum","Aminotransferase, alanine (ALT)","pkat/L",0.387427547378127,"0","0.58"
"01-003","Visit 2","2","2015-12-08","118","Serum","Aminotransferase, aspartate (AST)","pkat/L",,"0","0.58"
"01-003","Visit 2","2","2015-12-08","118","Serum","Calcium","mmol/L",2.32949228689286,"2.2","2.6"
"01-003","Visit 2","2","2015-12-08","118","Serum","Chloride","mmol/L",103.257515681584,"98","106"
"01-003","Visit 2","2","2015-12-08","118","Serum","Creatinine","μmol/L",58.2709758972863,"61.9","115"
"01-003","Visit 2","2","2015-12-08","118","Serum","Direct Bilirubin","μmol/L",0,"0","5.1"
"01-003","Visit 2","2","2015-12-08","118","Serum","IgE","mg/L",0.0956289987752529,"0.1","0.4"
"01-003","Visit 2","2","2015-12-08","118","Serum","Magnesium","mmol/L",0.687653233464788,"0.62","0.99"
"01-003","Visit 2","2","2015-12-08","118","Blood","Platelet count","x 109/L",303.03852367261,"150","350"
"01-003","Visit 2","2","2015-12-08","118","Serum","Potassium","mmol/L",5.077054587426,"3.5","5"
"01-003","Visit 2","2","2015-12-08","118","Blood","RBC count","x 1012 cells/L",4.89763352730128,"4.2","5.9"
"01-003","Visit 2","2","2015-12-08","118","Serum","Sodium","mmol/L",142.14150799043,"136","145"
"01-003","Visit 2","2","2015-12-08","118","Serum","Total Bilirubin","μmol/L",17.9652781455167,"5.1","20.5"
"01-003","Visit 2","2","2015-12-08","118","Blood","WBC count","x 109 cells/L",,"4.5","11"
"01-004","Screening","0","2015-01-12","1","Serum","Albumin","g/L",42.9436932590303,"35","55"
"01-004","Screening","0","2015-01-12","1","Serum","Alkaline phosphatase (ALP)","μkat/L",0.85585431420007,"0.5","1.5"
"01-004","Screening","0","2015-01-12","1","Serum","Aminotransferase, alanine (ALT)","pkat/L",,"0","0.58"
"01-004","Screening","0","2015-01-12","1","Serum","Aminotransferase, aspartate (AST)","pkat/L",0.549106276745448,"0","0.58"
"01-004","Screening","0","2015-01-12","1","Serum","Calcium","mmol/L",2.34241142800136,"2.2","2.6"
"01-004","Screening","0","2015-01-12","1","Serum","Chloride","mmol/L",101.764572182013,"98","106"
"01-004","Screening","0","2015-01-12","1","Serum","Creatinine","μmol/L",123.041971828692,"61.9","115"
"01-004","Screening","0","2015-01-12","1","Serum","Direct Bilirubin","μmol/L",0.897855243788464,"0","5.1"
"01-004","Screening","0","2015-01-12","1","Serum","IgE","mg/L",0.182903226687268,"0.1","0.4"
"01-004","Screening","0","2015-01-12","1","Serum","Magnesium","mmol/L",0.843764090612162,"0.62","0.99"
"01-004","Screening","0","2015-01-12","1","Blood","Platelet count","x 109/L",198.819684812459,"150","350"
"01-004","Screening","0","2015-01-12","1","Serum","Potassium","mmol/L",3.57078348460485,"3.5","5"
"01-004","Screening","0","2015-01-12","1","Blood","RBC count","x 1012 cells/L",4.75414340755143,"4.2","5.9"
"01-004","Screening","0","2015-01-12","1","Serum","Sodium","mmol/L",134.579467261,"136","145"
"01-004","Screening","0","2015-01-12","1","Serum","Total Bilirubin","μmol/L",,"5.1","20.5"
"01-004","Screening","0","2015-01-12","1","Blood","WBC count","x 109 cells/L",12.5671744744081,"4.5","11"
"01-004","Visit 1","1","2015-03-02","50","Serum","Albumin","g/L",35.9123870157723,"35","55"
"01-004","Visit 1","1","2015-03-02","50","Serum","Alkaline phosphatase (ALP)","μkat/L",1.15594640889508,"0.5","1.5"
"01-004","Visit 1","1","2015-03-02","50","Serum","Aminotransferase, alanine (ALT)","pkat/L",0.2308989577144,"0","0.58"
"01-004","Visit 1","1","2015-03-02","50","Serum","Aminotransferase, aspartate (AST)","pkat/L",0,"0","0.58"
"01-004","Visit 1","1","2015-03-02","50","Serum","Calcium","mmol/L",,"2.2","2.6"
"01-004","Visit 1","1","2015-03-02","50","Serum","Chloride","mmol/L",,"98","106"
"01-004","Visit 1","1","2015-03-02","50","Serum","Creatinine","μmol/L",62.3520944744999,"61.9","115"
"01-004","Visit 1","1","2015-03-02","50","Serum","Direct Bilirubin","μmol/L",1.1916257550896,"0","5.1"
"01-004","Visit 1","1","2015-03-02","50","Serum","IgE","mg/L",0.27329416172081,"0.1","0.4"
"01-004","Visit 1","1","2015-03-02","50","Serum","Magnesium","mmol/L",0.479238168294069,"0.62","0.99"
"01-004","Visit 1","1","2015-03-02","50","Blood","Platelet count","x 109/L",203.216996149477,"150","350"
"01-004","Visit 1","1","2015-03-02","50","Serum","Potassium","mmol/L",3.86861349725075,"3.5","5"
"01-004","Visit 1","1","2015-03-02","50","Blood","RBC count","x 1012 cells/L",4.59352235232271,"4.2","5.9"
"01-004","Visit 1","1","2015-03-02","50","Serum","Sodium","mmol/L",149.545060510219,"136","145"
"01-004","Visit 1","1","2015-03-02","50","Serum","Total Bilirubin","μmol/L",29.5090659006079,"5.1","20.5"
"01-004","Visit 1","1","2015-03-02","50","Blood","WBC count","x 109 cells/L",4.11268990111011,"4.5","11"
"01-005","Screening","0","2015-11-11","1","Serum","Albumin","g/L",59.2336415220535,"35","55"
"01-005","Screening","0","2015-11-11","1","Serum","Alkaline phosphatase (ALP)","μkat/L",0.683324275546981,"0.5","1.5"
"01-005","Screening","0","2015-11-11","1","Serum","Aminotransferase, alanine (ALT)","pkat/L",0.615933487430712,"0","0.58"
"01-005","Screening","0","2015-11-11","1","Serum","Aminotransferase, aspartate (AST)","pkat/L",0.376151129378731,"0","0.58"
"01-005","Screening","0","2015-11-11","1","Serum","Calcium","mmol/L",2.28071994611498,"2.2","2.6"
"01-005","Screening","0","2015-11-11","1","Serum","Chloride","mmol/L",109.392477838559,"98","106"
"01-005","Screening","0","2015-11-11","1","Serum","Creatinine","μmol/L",122.149152234623,"61.9","115"
"01-005","Screening","0","2015-11-11","1","Serum","Direct Bilirubin","μmol/L",3.01321786346743,"0","5.1"
"01-005","Screening","0","2015-11-11","1","Serum","IgE","mg/L",0.28474560397982,"0.1","0.4"
"01-005","Screening","0","2015-11-11","1","Serum","Magnesium","mmol/L",0.690481055236582,"0.62","0.99"
"01-005","Screening","0","2015-11-11","1","Blood","Platelet count","x 109/L",463.243139180733,"150","350"
"01-005","Screening","0","2015-11-11","1","Serum","Potassium","mmol/L",4.68120215232467,"3.5","5"
"01-005","Screening","0","2015-11-11","1","Blood","RBC count","x 1012 cells/L",6.23010335043089,"4.2","5.9"
"01-005","Screening","0","2015-11-11","1","Serum","Sodium","mmol/L",138.870342350005,"136","145"
"01-005","Screening","0","2015-11-11","1","Serum","Total Bilirubin","μmol/L",18.4440590026213,"5.1","20.5"
"01-005","Screening","0","2015-11-11","1","Blood","WBC count","x 109 cells/L",2.62697864606129,"4.5","11"
"01-005","Visit 1","1","2016-01-01","52","Serum","Albumin","g/L",32.182723900946,"35","55"
"01-005","Visit 1","1","2016-01-01","52","Serum","Alkaline phosphatase (ALP)","μkat/L",0.301711246670373,"0.5","1.5"
"01-005","Visit 1","1","2016-01-01","52","Serum","Aminotransferase, alanine (ALT)","pkat/L",0.0410093243679377,"0","0.58"
"01-005","Visit 1","1","2016-01-01","52","Serum","Aminotransferase, aspartate (AST)","pkat/L",0.173110072533774,"0","0.58"
"01-005","Visit 1","1","2016-01-01","52","Serum","Calcium","mmol/L",,"2.2","2.6"
"01-005","Visit 1","1","2016-01-01","52","Serum","Chloride","mmol/L",98.7081266055703,"98","106"
"01-005","Visit 1","1","2016-01-01","52","Serum","Creatinine","μmol/L",47.2938570501292,"61.9","115"
"01-005","Visit 1","1","2016-01-01","52","Serum","Direct Bilirubin","μmol/L",0.514301627396305,"0","5.1"
"01-005","Visit 1","1","2016-01-01","52","Serum","IgE","mg/L",0.27052608467864,"0.1","0.4"
"01-005","Visit 1","1","2016-01-01","52","Serum","Magnesium","mmol/L",0.628459221359288,"0.62","0.99"
"01-005","Visit 1","1","2016-01-01","52","Blood","Platelet count","x 109/L",131.317651074618,"150","350"
"01-005","Visit 1","1","2016-01-01","52","Serum","Potassium","mmol/L",4.7188451441438,"3.5","5"
"01-005","Visit 1","1","2016-01-01","52","Blood","RBC count","x 1012 cells/L",4.8781942421691,"4.2","5.9"
"01-005","Visit 1","1","2016-01-01","52","Serum","Sodium","mmol/L",137.571906879448,"136","145"
"01-005","Visit 1","1","2016-01-01","52","Serum","Total Bilirubin","μmol/L",2.25858941294149,"5.1","20.5"
"01-005","Visit 1","1","2016-01-01","52","Blood","WBC count","x 109 cells/L",8.67922302951748,"4.5","11"
"01-009","Screening","0","2015-11-25","1","Serum","Albumin","g/L",51.288330741507,"35","55"
"01-009","Screening","0","2015-11-25","1","Serum","Alkaline phosphatase (ALP)","μkat/L",1.93818836375163,"0.5","1.5"
"01-009","Screening","0","2015-11-25","1","Serum","Aminotransferase, alanine (ALT)","pkat/L",0.288614746258522,"0","0.58"
"01-009","Screening","0","2015-11-25","1","Serum","Aminotransferase, aspartate (AST)","pkat/L",0.44490206037002,"0","0.58"
"01-009","Screening","0","2015-11-25","1","Serum","Calcium","mmol/L",2.39555745630877,"2.2","2.6"
"01-009","Screening","0","2015-11-25","1","Serum","Chloride","mmol/L",97.3303330110206,"98","106"
"01-009","Screening","0","2015-11-25","1","Serum","Creatinine","μmol/L",68.5537474972545,"61.9","115"
"01-009","Screening","0","2015-11-25","1","Serum","Direct Bilirubin","μmol/L",4.23132998455481,"0","5.1"
"01-009","Screening","0","2015-11-25","1","Serum","IgE","mg/L",0.308732407624202,"0.1","0.4"
"01-009","Screening","0","2015-11-25","1","Serum","Magnesium","mmol/L",0.898540764131125,"0.62","0.99"
"01-009","Screening","0","2015-11-25","1","Blood","Platelet count","x 109/L",215.809935074148,"150","350"
"01-009","Screening","0","2015-11-25","1","Serum","Potassium","mmol/L",5.26015011997845,"3.5","5"
"01-009","Screening","0","2015-11-25","1","Blood","RBC count","x 1012 cells/L",5.71675318769101,"4.2","5.9"
"01-009","Screening","0","2015-11-25","1","Serum","Sodium","mmol/L",139.293475687638,"136","145"
"01-009","Screening","0","2015-11-25","1","Serum","Total Bilirubin","μmol/L",7.60386737165412,"5.1","20.5"
"01-009","Screening","0","2015-11-25","1","Blood","WBC count","x 109 cells/L",,"4.5","11"
"01-009","Visit 1","1","2016-01-24","61","Serum","Albumin","g/L",33.484548003058,"35","55"
"01-009","Visit 1","1","2016-01-24","61","Serum","Alkaline phosphatase (ALP)","μkat/L",1.3057936678018,"0.5","1.5"
"01-009","Visit 1","1","2016-01-24","61","Serum","Aminotransferase, alanine (ALT)","pkat/L",0.163880159779162,"0","0.58"
"01-009","Visit 1","1","2016-01-24","61","Serum","Aminotransferase, aspartate (AST)","pkat/L",0.665111793018047,"0","0.58"
"01-009","Visit 1","1","2016-01-24","61","Serum","Calcium","mmol/L",,"2.2","2.6"
"01-009","Visit 1","1","2016-01-24","61","Serum","Chloride","mmol/L",98.837226992523,"98","106"
"01-009","Visit 1","1","2016-01-24","61","Serum","Creatinine","μmol/L",50.3842169959582,"61.9","115"
"01-009","Visit 1","1","2016-01-24","61","Serum","Direct Bilirubin","μmol/L",4.54244287125978,"0","5.1"
"01-009","Visit 1","1","2016-01-24","61","Serum","IgE","mg/L",0.182069914982695,"0.1","0.4"
"01-009","Visit 1","1","2016-01-24","61","Serum","Magnesium","mmol/L",0.610819066624471,"0.62","0.99"
"01-009","Visit 1","1","2016-01-24","61","Blood","Platelet count","x 109/L",241.041343131549,"150","350"
"01-009","Visit 1","1","2016-01-24","61","Serum","Potassium","mmol/L",3.10483320546895,"3.5","5"
"01-009","Visit 1","1","2016-01-24","61","Blood","RBC count","x 1012 cells/L",4.61716081717901,"4.2","5.9"
"01-009","Visit 1","1","2016-01-24","61","Serum","Sodium","mmol/L",137.315249410756,"136","145"
"01-009","Visit 1","1","2016-01-24","61","Serum","Total Bilirubin","μmol/L",8.8313994329137,"5.1","20.5"
"01-009","Visit 1","1","2016-01-24","61","Blood","WBC count","x 109 cells/L",9.90369352430777,"4.5","11"
"01-009","Visit 2","2","2016-03-16","113","Serum","Albumin","g/L",59.445986202009,"35","55"
"01-009","Visit 2","2","2016-03-16","113","Serum","Alkaline phosphatase (ALP)","μkat/L",1.43347279955199,"0.5","1.5"
"01-009","Visit 2","2","2016-03-16","113","Serum","Aminotransferase, alanine (ALT)","pkat/L",0,"0","0.58"
"01-009","Visit 2","2","2016-03-16","113","Serum","Aminotransferase, aspartate (AST)","pkat/L",,"0","0.58"
"01-009","Visit 2","2","2016-03-16","113","Serum","Calcium","mmol/L",1.99085442099071,"2.2","2.6"
"01-009","Visit 2","2","2016-03-16","113","Serum","Chloride","mmol/L",100.567085485914,"98","106"
"01-009","Visit 2","2","2016-03-16","113","Serum","Creatinine","μmol/L",89.6771564218253,"61.9","115"
"01-009","Visit 2","2","2016-03-16","113","Serum","Direct Bilirubin","μmol/L",3.02274824291664,"0","5.1"
"01-009","Visit 2","2","2016-03-16","113","Serum","IgE","mg/L",0.121838117067559,"0.1","0.4"
"01-009","Visit 2","2","2016-03-16","113","Serum","Magnesium","mmol/L",1.21776613696695,"0.62","0.99"
"01-009","Visit 2","2","2016-03-16","113","Blood","Platelet count","x 109/L",319.600361413117,"150","350"
"01-009","Visit 2","2","2016-03-16","113","Serum","Potassium","mmol/L",3.17740091725431,"3.5","5"
"01-009","Visit 2","2","2016-03-16","113","Blood","RBC count","x 1012 cells/L",4.78392929562098,"4.2","5.9"
"01-009","Visit 2","2","2016-03-16","113","Serum","Sodium","mmol/L",136.786326012818,"136","145"
"01-009","Visit 2","2","2016-03-16","113","Serum","Total Bilirubin","μmol/L",13.9275140876352,"5.1","20.5"
"01-009","Visit 2","2","2016-03-16","113","Blood","WBC count","x 109 cells/L",0,"4.5","11"
"01-010","Screening","0","2015-01-06","1","Serum","Albumin","g/L",50.3015988719217,"35","55"
"01-010","Screening","0","2015-01-06","1","Serum","Alkaline phosphatase (ALP)","μkat/L",0.971159800063998,"0.5","1.5"
"01-010","Screening","0","2015-01-06","1","Serum","Aminotransferase, alanine (ALT)","pkat/L",0.509856817463958,"0","0.58"
"01-010","Screening","0","2015-01-06","1","Serum","Aminotransferase, aspartate (AST)","pkat/L",0,"0","0.58"
"01-010","Screening","0","2015-01-06","1","Serum","Calcium","mmol/L",2.49376661809342,"2.2","2.6"
"01-010","Screening","0","2015-01-06","1","Serum","Chloride","mmol/L",105.967905323298,"98","106"
"01-010","Screening","0","2015-01-06","1","Serum","Creatinine","μmol/L",95.4958200363633,"61.9","115"
"01-010","Screening","0","2015-01-06","1","Serum","Direct Bilirubin","μmol/L",4.73637044338579,"0","5.1"
"01-010","Screening","0","2015-01-06","1","Serum","IgE","mg/L",0.298985538635615,"0.1","0.4"
"01-010","Screening","0","2015-01-06","1","Serum","Magnesium","mmol/L",0.411084480212765,"0.62","0.99"
"01-010","Screening","0","2015-01-06","1","Blood","Platelet count","x 109/L",354.247820157918,"150","350"
"01-010","Screening","0","2015-01-06","1","Serum","Potassium","mmol/L",3.6739243612848,"3.5","5"
"01-010","Screening","0","2015-01-06","1","Blood","RBC count","x 1012 cells/L",3.27582360979421,"4.2","5.9"
"01-010","Screening","0","2015-01-06","1","Serum","Sodium","mmol/L",147.515669434898,"136","145"
"01-010","Screening","0","2015-01-06","1","Serum","Total Bilirubin","μmol/L",31.1150716495391,"5.1","20.5"
"01-010","Screening","0","2015-01-06","1","Blood","WBC count","x 109 cells/L",10.4374211130765,"4.5","11"
"01-010","Visit 1","1","2015-02-23","49","Serum","Albumin","g/L",52.9620969287605,"35","55"
"01-010","Visit 1","1","2015-02-23","49","Serum","Alkaline phosphatase (ALP)","μkat/L",0.218010576469154,"0.5","1.5"
"01-010","Visit 1","1","2015-02-23","49","Serum","Aminotransferase, alanine (ALT)","pkat/L",0.203487203669687,"0","0.58"
"01-010","Visit 1","1","2015-02-23","49","Serum","Aminotransferase, aspartate (AST)","pkat/L",0.201892387574307,"0","0.58"
"01-010","Visit 1","1","2015-02-23","49","Serum","Calcium","mmol/L",,"2.2","2.6"
"01-010","Visit 1","1","2015-02-23","49","Serum","Chloride","mmol/L",105.431613661498,"98","106"
"01-010","Visit 1","1","2015-02-23","49","Serum","Creatinine","μmol/L",78.2830088449328,"61.9","115"
"01-010","Visit 1","1","2015-02-23","49","Serum","Direct Bilirubin","μmol/L",0,"0","5.1"
"01-010","Visit 1","1","2015-02-23","49","Serum","IgE","mg/L",0.347912271386179,"0.1","0.4"
"01-010","Visit 1","1","2015-02-23","49","Serum","Magnesium","mmol/L",1.19692455533731,"0.62","0.99"
"01-010","Visit 1","1","2015-02-23","49","Blood","Platelet count","x 109/L",324.122833499555,"150","350"
"01-010","Visit 1","1","2015-02-23","49","Serum","Potassium","mmol/L",6.57499317102939,"3.5","5"
"01-010","Visit 1","1","2015-02-23","49","Blood","RBC count","x 1012 cells/L",4.46779194291954,"4.2","5.9"
"01-010","Visit 1","1","2015-02-23","49","Serum","Sodium","mmol/L",128.055774000299,"136","145"
"01-010","Visit 1","1","2015-02-23","49","Serum","Total Bilirubin","μmol/L",8.73230659725205,"5.1","20.5"
"01-010","Visit 1","1","2015-02-23","49","Blood","WBC count","x 109 cells/L",2.53593810231877,"4.5","11"
"01-011","Screening","0","2015-10-04","1","Serum","Albumin","g/L",44.1021865654291,"35","55"
"01-011","Screening","0","2015-10-04","1","Serum","Alkaline phosphatase (ALP)","μkat/L",1.52797973115826,"0.5","1.5"
"01-011","Screening","0","2015-10-04","1","Serum","Aminotransferase, alanine (ALT)","pkat/L",0.00387592988997904,"0","0.58"
"01-011","Screening","0","2015-10-04","1","Serum","Aminotransferase, aspartate (AST)","pkat/L",0.500303705965232,"0","0.58"
"01-011","Screening","0","2015-10-04","1","Serum","Calcium","mmol/L",2.518926492415,"2.2","2.6"
"01-011","Screening","0","2015-10-04","1","Serum","Chloride","mmol/L",104.931863916327,"98","106"
"01-011","Screening","0","2015-10-04","1","Serum","Creatinine","μmol/L",77.1929766579195,"61.9","115"
"01-011","Screening","0","2015-10-04","1","Serum","Direct Bilirubin","μmol/L",2.72925018460332,"0","5.1"
"01-011","Screening","0","2015-10-04","1","Serum","IgE","mg/L",0.117412432346292,"0.1","0.4"
"01-011","Screening","0","2015-10-04","1","Serum","Magnesium","mmol/L",1.04137420295043,"0.62","0.99"
"01-011","Screening","0","2015-10-04","1","Blood","Platelet count","x 109/L",198.1086092315,"150","350"
"01-011","Screening","0","2015-10-04","1","Serum","Potassium","mmol/L",5.00167263426782,"3.5","5"
"01-011","Screening","0","2015-10-04","1","Blood","RBC count","x 1012 cells/L",5.7943745623202,"4.2","5.9"
"01-011","Screening","0","2015-10-04","1","Serum","Sodium","mmol/L",140.152505599894,"136","145"
"01-011","Screening","0","2015-10-04","1","Serum","Total Bilirubin","μmol/L",8.72843790799224,"5.1","20.5"
"01-011","Screening","0","2015-10-04","1","Blood","WBC count","x 109 cells/L",8.51041690157831,"4.5","11"
"01-011","Visit 1","1","2015-11-30","58","Serum","Albumin","g/L",50.0659869396745,"35","55"
"01-011","Visit 1","1","2015-11-30","58","Serum","Alkaline phosphatase (ALP)","μkat/L",0.561766186508411,"0.5","1.5"
"01-011","Visit 1","1","2015-11-30","58","Serum","Aminotransferase, alanine (ALT)","pkat/L",0.060595328667693,"0","0.58"
"01-011","Visit 1","1","2015-11-30","58","Serum","Aminotransferase, aspartate (AST)","pkat/L",0.010357766383084,"0","0.58"
"01-011","Visit 1","1","2015-11-30","58","Serum","Calcium","mmol/L",,"2.2","2.6"
"01-011","Visit 1","1","2015-11-30","58","Serum","Chloride","mmol/L",108.619351749653,"98","106"
"01-011","Visit 1","1","2015-11-30","58","Serum","Creatinine","μmol/L",52.9047646294469,"61.9","115"
"01-011","Visit 1","1","2015-11-30","58","Serum","Direct Bilirubin","μmol/L",3.71803036792302,"0","5.1"
"01-011","Visit 1","1","2015-11-30","58","Serum","IgE","mg/L",0.337110825372803,"0.1","0.4"
"01-011","Visit 1","1","2015-11-30","58","Serum","Magnesium","mmol/L",0.751692466131351,"0.62","0.99"
"01-011","Visit 1","1","2015-11-30","58","Blood","Platelet count","x 109/L",497.888996740508,"150","350"
"01-011","Visit 1","1","2015-11-30","58","Serum","Potassium","mmol/L",4.06687102337573,"3.5","5"
"01-011","Visit 1","1","2015-11-30","58","Blood","RBC count","x 1012 cells/L",5.08857861683537,"4.2","5.9"
"01-011","Visit 1","1","2015-11-30","58","Serum","Sodium","mmol/L",146.456017187579,"136","145"
"01-011","Visit 1","1","2015-11-30","58","Serum","Total Bilirubin","μmol/L",0.0605886172231198,"5.1","20.5"
"01-011","Visit 1","1","2015-11-30","58","Blood","WBC count","x 109 cells/L",0.050571407801959,"4.5","11"
"01-012","Screening","0","2015-04-18","1","Serum","Albumin","g/L",39.0709864520223,"35","55"
"01-012","Screening","0","2015-04-18","1","Serum","Alkaline phosphatase (ALP)","μkat/L",1.4282314730262,"0.5","1.5"
"01-012","Screening","0","2015-04-18","1","Serum","Aminotransferase, alanine (ALT)","pkat/L",0,"0","0.58"
"01-012","Screening","0","2015-04-18","1","Serum","Aminotransferase, aspartate (AST)","pkat/L",0.361388807042018,"0","0.58"
"01-012","Screening","0","2015-04-18","1","Serum","Calcium","mmol/L",2.24579933191562,"2.2","2.6"
"01-012","Screening","0","2015-04-18","1","Serum","Chloride","mmol/L",109.658042150819,"98","106"
"01-012","Screening","0","2015-04-18","1","Serum","Creatinine","μmol/L",87.9418323967715,"61.9","115"
"01-012","Screening","0","2015-04-18","1","Serum","Direct Bilirubin","μmol/L",2.72541941851861,"0","5.1"
"01-012","Screening","0","2015-04-18","1","Serum","IgE","mg/L",0.064599423507186,"0.1","0.4"
"01-012","Screening","0","2015-04-18","1","Serum","Magnesium","mmol/L",0.914394757703962,"0.62","0.99"
"01-012","Screening","0","2015-04-18","1","Blood","Platelet count","x 109/L",223.55994732341,"150","350"
"01-012","Screening","0","2015-04-18","1","Serum","Potassium","mmol/L",3.48645232433414,"3.5","5"
"01-012","Screening","0","2015-04-18","1","Blood","RBC count","x 1012 cells/L",4.57240783291865,"4.2","5.9"
"01-012","Screening","0","2015-04-18","1","Serum","Sodium","mmol/L",147.194440685289,"136","145"
"01-012","Screening","0","2015-04-18","1","Serum","Total Bilirubin","μmol/L",21.7206535630321,"5.1","20.5"
"01-012","Screening","0","2015-04-18","1","Blood","WBC count","x 109 cells/L",7.96447272383614,"4.5","11"
"01-012","Visit 1","1","2015-06-06","50","Serum","Albumin","g/L",55.3071695800095,"35","55"
"01-012","Visit 1","1","2015-06-06","50","Serum","Alkaline phosphatase (ALP)","μkat/L",1.50457581544233,"0.5","1.5"
"01-012","Visit 1","1","2015-06-06","50","Serum","Aminotransferase, alanine (ALT)","pkat/L",0.577604796378049,"0","0.58"
"01-012","Visit 1","1","2015-06-06","50","Serum","Aminotransferase, aspartate (AST)","pkat/L",0,"0","0.58"
"01-012","Visit 1","1","2015-06-06","50","Serum","Calcium","mmol/L",,"2.2","2.6"
"01-012","Visit 1","1","2015-06-06","50","Serum","Chloride","mmol/L",97.0385057063593,"98","106"
"01-012","Visit 1","1","2015-06-06","50","Serum","Creatinine","μmol/L",10.9636002538488,"61.9","115"
"01-012","Visit 1","1","2015-06-06","50","Serum","Direct Bilirubin","μmol/L",0.580236764147341,"0","5.1"
"01-012","Visit 1","1","2015-06-06","50","Serum","IgE","mg/L",0.385207650629574,"0.1","0.4"
"01-012","Visit 1","1","2015-06-06","50","Serum","Magnesium","mmol/L",0.902716574431194,"0.62","0.99"
"01-012","Visit 1","1","2015-06-06","50","Blood","Platelet count","x 109/L",311.007772840685,"150","350"
"01-012","Visit 1","1","2015-06-06","50","Serum","Potassium","mmol/L",2.94969017896397,"3.5","5"
"01-012","Visit 1","1","2015-06-06","50","Blood","RBC count","x 1012 cells/L",4.11359370148629,"4.2","5.9"
"01-012","Visit 1","1","2015-06-06","50","Serum","Sodium","mmol/L",145.78198030527,"136","145"
"01-012","Visit 1","1","2015-06-06","50","Serum","Total Bilirubin","μmol/L",7.54921993400722,"5.1","20.5"
"01-012","Visit 1","1","2015-06-06","50","Blood","WBC count","x 109 cells/L",2.77550360024179,"4.5","11"
"01-012","Visit 3","3","2015-10-07","173","Serum","Albumin","g/L",42.9928037091179,"35","55"
"01-012","Visit 3","3","2015-10-07","173","Serum","Alkaline phosphatase (ALP)","μkat/L",1.22993618574611,"0.5","1.5"
"01-012","Visit 3","3","2015-10-07","173","Serum","Aminotransferase, alanine (ALT)","pkat/L",0.779353025983582,"0","0.58"
"01-012","Visit 3","3","2015-10-07","173","Serum","Aminotransferase, aspartate (AST)","pkat/L",0.563865658786749,"0","0.58"
"01-012","Visit 3","3","2015-10-07","173","Serum","Calcium","mmol/L",2.39874136255693,"2.2","2.6"
"01-012","Visit 3","3","2015-10-07","173","Serum","Chloride","mmol/L",,"98","106"
"01-012","Visit 3","3","2015-10-07","173","Serum","Creatinine","μmol/L",46.6768326268138,"61.9","115"
"01-012","Visit 3","3","2015-10-07","173","Serum","Direct Bilirubin","μmol/L",2.41558012586117,"0","5.1"
"01-012","Visit 3","3","2015-10-07","173","Serum","IgE","mg/L",0.166788772948486,"0.1","0.4"
"01-012","Visit 3","3","2015-10-07","173","Serum","Magnesium","mmol/L",1.07548410406877,"0.62","0.99"
"01-012","Visit 3","3","2015-10-07","173","Blood","Platelet count","x 109/L",175.290582986618,"150","350"
"01-012","Visit 3","3","2015-10-07","173","Serum","Potassium","mmol/L",6.00745950957447,"3.5","5"
"01-012","Visit 3","3","2015-10-07","173","Blood","RBC count","x 1012 cells/L",5.07654526002678,"4.2","5.9"
"01-012","Visit 3","3","2015-10-07","173","Serum","Sodium","mmol/L",136.82563219307,"136","145"
"01-012","Visit 3","3","2015-10-07","173","Serum","Total Bilirubin","μmol/L",26.5905364603515,"5.1","20.5"
"01-012","Visit 3","3","2015-10-07","173","Blood","WBC count","x 109 cells/L",6.65301651148872,"4.5","11"
"01-013","Screening","0","2015-07-15","1","Serum","Albumin","g/L",46.8971623803667,"35","55"
"01-013","Screening","0","2015-07-15","1","Serum","Alkaline phosphatase (ALP)","μkat/L",1.00899680879572,"0.5","1.5"
"01-013","Screening","0","2015-07-15","1","Serum","Aminotransferase, alanine (ALT)","pkat/L",0.311555986581728,"0","0.58"
"01-013","Screening","0","2015-07-15","1","Serum","Aminotransferase, aspartate (AST)","pkat/L",0.473704995082346,"0","0.58"
"01-013","Screening","0","2015-07-15","1","Serum","Calcium","mmol/L",2.48630173618568,"2.2","2.6"
"01-013","Screening","0","2015-07-15","1","Serum","Chloride","mmol/L",103.68924342176,"98","106"
"01-013","Screening","0","2015-07-15","1","Serum","Creatinine","μmol/L",115.943852905367,"61.9","115"
"01-013","Screening","0","2015-07-15","1","Serum","Direct Bilirubin","μmol/L",0,"0","5.1"
"01-013","Screening","0","2015-07-15","1","Serum","IgE","mg/L",0.752358037956007,"0.1","0.4"
"01-013","Screening","0","2015-07-15","1","Serum","Magnesium","mmol/L",1.03046180421843,"0.62","0.99"
"01-013","Screening","0","2015-07-15","1","Blood","Platelet count","x 109/L",124.671147171301,"150","350"
"01-013","Screening","0","2015-07-15","1","Serum","Potassium","mmol/L",4.67474017852523,"3.5","5"
"01-013","Screening","0","2015-07-15","1","Blood","RBC count","x 1012 cells/L",4.7924044683356,"4.2","5.9"
"01-013","Screening","0","2015-07-15","1","Serum","Sodium","mmol/L",140.061961580653,"136","145"
"01-013","Screening","0","2015-07-15","1","Serum","Total Bilirubin","μmol/L",11.4873680683192,"5.1","20.5"
"01-013","Screening","0","2015-07-15","1","Blood","WBC count","x 109 cells/L",9.6288428673302,"4.5","11"
"01-013","Visit 1","1","2015-09-11","59","Serum","Albumin","g/L",44.5820817782363,"35","55"
"01-013","Visit 1","1","2015-09-11","59","Serum","Alkaline phosphatase (ALP)","μkat/L",,"0.5","1.5"
"01-013","Visit 1","1","2015-09-11","59","Serum","Aminotransferase, alanine (ALT)","pkat/L",0.480864529477909,"0","0.58"
"01-013","Visit 1","1","2015-09-11","59","Serum","Aminotransferase, aspartate (AST)","pkat/L",0,"0","0.58"
"01-013","Visit 1","1","2015-09-11","59","Serum","Calcium","mmol/L",,"2.2","2.6"
"01-013","Visit 1","1","2015-09-11","59","Serum","Chloride","mmol/L",98.7870255474392,"98","106"
"01-013","Visit 1","1","2015-09-11","59","Serum","Creatinine","μmol/L",67.8986845806728,"61.9","115"
"01-013","Visit 1","1","2015-09-11","59","Serum","Direct Bilirubin","μmol/L",7.63824382581563,"0","5.1"
"01-013","Visit 1","1","2015-09-11","59","Serum","IgE","mg/L",0.140702452256999,"0.1","0.4"
"01-013","Visit 1","1","2015-09-11","59","Serum","Magnesium","mmol/L",0.648739400502981,"0.62","0.99"
"01-013","Visit 1","1","2015-09-11","59","Blood","Platelet count","x 109/L",246.104899216653,"150","350"
"01-013","Visit 1","1","2015-09-11","59","Serum","Potassium","mmol/L",3.531828065982,"3.5","5"
"01-013","Visit 1","1","2015-09-11","59","Blood","RBC count","x 1012 cells/L",5.51019003020005,"4.2","5.9"
"01-013","Visit 1","1","2015-09-11","59","Serum","Sodium","mmol/L",139.675004038886,"136","145"
"01-013","Visit 1","1","2015-09-11","59","Serum","Total Bilirubin","μmol/L",0,"5.1","20.5"
"01-013","Visit 1","1","2015-09-11","59","Blood","WBC count","x 109 cells/L",0,"4.5","11"
"01-013","Visit 2","2","2015-10-27","105","Serum","Albumin","g/L",52.6777892269523,"35","55"
"01-013","Visit 2","2","2015-10-27","105","Serum","Alkaline phosphatase (ALP)","μkat/L",0.987422314902211,"0.5","1.5"
"01-013","Visit 2","2","2015-10-27","105","Serum","Aminotransferase, alanine (ALT)","pkat/L",0,"0","0.58"
"01-013","Visit 2","2","2015-10-27","105","Serum","Aminotransferase, aspartate (AST)","pkat/L",,"0","0.58"
"01-013","Visit 2","2","2015-10-27","105","Serum","Calcium","mmol/L",2.35240296867047,"2.2","2.6"
"01-013","Visit 2","2","2015-10-27","105","Serum","Chloride","mmol/L",,"98","106"
"01-013","Visit 2","2","2015-10-27","105","Serum","Creatinine","μmol/L",47.4056449335471,"61.9","115"
"01-013","Visit 2","2","2015-10-27","105","Serum","Direct Bilirubin","μmol/L",0,"0","5.1"
"01-013","Visit 2","2","2015-10-27","105","Serum","IgE","mg/L",0.32964162468211,"0.1","0.4"
"01-013","Visit 2","2","2015-10-27","105","Serum","Magnesium","mmol/L",0.907780847984225,"0.62","0.99"
"01-013","Visit 2","2","2015-10-27","105","Blood","Platelet count","x 109/L",119.617626360633,"150","350"
"01-013","Visit 2","2","2015-10-27","105","Serum","Potassium","mmol/L",3.68806573069659,"3.5","5"
"01-013","Visit 2","2","2015-10-27","105","Blood","RBC count","x 1012 cells/L",5.94202306198192,"4.2","5.9"
"01-013","Visit 2","2","2015-10-27","105","Serum","Sodium","mmol/L",141.286672506985,"136","145"
"01-013","Visit 2","2","2015-10-27","105","Serum","Total Bilirubin","μmol/L",8.54791691772796,"5.1","20.5"
"01-013","Visit 2","2","2015-10-27","105","Blood","WBC count","x 109 cells/L",5.56455627049745,"4.5","11"
"01-013","Visit 3","3","2016-01-03","173","Serum","Albumin","g/L",41.5270331239699,"35","55"
"01-013","Visit 3","3","2016-01-03","173","Serum","Alkaline phosphatase (ALP)","μkat/L",1.42582550545413,"0.5","1.5"
"01-013","Visit 3","3","2016-01-03","173","Serum","Aminotransferase, alanine (ALT)","pkat/L",0.0889390970023709,"0","0.58"
"01-013","Visit 3","3","2016-01-03","173","Serum","Aminotransferase, aspartate (AST)","pkat/L",0,"0","0.58"
"01-013","Visit 3","3","2016-01-03","173","Serum","Calcium","mmol/L",1.9961475673778,"2.2","2.6"
"01-013","Visit 3","3","2016-01-03","173","Serum","Chloride","mmol/L",,"98","106"
"01-013","Visit 3","3","2016-01-03","173","Serum","Creatinine","μmol/L",58.3690933886268,"61.9","115"
"01-013","Visit 3","3","2016-01-03","173","Serum","Direct Bilirubin","μmol/L",0.173061044992896,"0","5.1"
"01-013","Visit 3","3","2016-01-03","173","Serum","IgE","mg/L",0.314668581985684,"0.1","0.4"
"01-013","Visit 3","3","2016-01-03","173","Serum","Magnesium","mmol/L",0.766427967296359,"0.62","0.99"
"01-013","Visit 3","3","2016-01-03","173","Blood","Platelet count","x 109/L",264.739919876927,"150","350"
"01-013","Visit 3","3","2016-01-03","173","Serum","Potassium","mmol/L",5.61433087408665,"3.5","5"
"01-013","Visit 3","3","2016-01-03","173","Blood","RBC count","x 1012 cells/L",6.3145445382636,"4.2","5.9"
"01-013","Visit 3","3","2016-01-03","173","Serum","Sodium","mmol/L",136.339439958173,"136","145"
"01-013","Visit 3","3","2016-01-03","173","Serum","Total Bilirubin","μmol/L",13.847513458568,"5.1","20.5"
"01-013","Visit 3","3","2016-01-03","173","Blood","WBC count","x 109 cells/L",5.50744759172471,"4.5","11"
"01-013","Visit 4","4","2016-02-23","224","Serum","Albumin","g/L",28.5333407269246,"35","55"
"01-013","Visit 4","4","2016-02-23","224","Serum","Alkaline phosphatase (ALP)","μkat/L",,"0.5","1.5"
"01-013","Visit 4","4","2016-02-23","224","Serum","Aminotransferase, alanine (ALT)","pkat/L",,"0","0.58"
"01-013","Visit 4","4","2016-02-23","224","Serum","Aminotransferase, aspartate (AST)","pkat/L",0.315975609806982,"0","0.58"
"01-013","Visit 4","4","2016-02-23","224","Serum","Calcium","mmol/L",2.38847905847324,"2.2","2.6"
"01-013","Visit 4","4","2016-02-23","224","Serum","Chloride","mmol/L",100.884475598692,"98","106"
"01-013","Visit 4","4","2016-02-23","224","Serum","Creatinine","μmol/L",95.5695188171474,"61.9","115"
"01-013","Visit 4","4","2016-02-23","224","Serum","Direct Bilirubin","μmol/L",2.7821037695051,"0","5.1"
"01-013","Visit 4","4","2016-02-23","224","Serum","IgE","mg/L",0.112381093102753,"0.1","0.4"
"01-013","Visit 4","4","2016-02-23","224","Serum","Magnesium","mmol/L",0.787674127341477,"0.62","0.99"
"01-013","Visit 4","4","2016-02-23","224","Blood","Platelet count","x 109/L",,"150","350"
"01-013","Visit 4","4","2016-02-23","224","Serum","Potassium","mmol/L",3.71827936197375,"3.5","5"
"01-013","Visit 4","4","2016-02-23","224","Blood","RBC count","x 1012 cells/L",,"4.2","5.9"
"01-013","Visit 4","4","2016-02-23","224","Serum","Sodium","mmol/L",,"136","145"
"01-013","Visit 4","4","2016-02-23","224","Serum","Total Bilirubin","μmol/L",27.3464143400716,"5.1","20.5"
"01-013","Visit 4","4","2016-02-23","224","Blood","WBC count","x 109 cells/L",,"4.5","11"
"01-013","Unscheduled 4.1","4.1","2016-03-02","232","Serum","Albumin","g/L",76.7621892537589,"35","55"
"01-013","Unscheduled 4.1","4.1","2016-03-02","232","Serum","Alkaline phosphatase (ALP)","μkat/L",0.424775811283336,"0.5","1.5"
"01-013","Unscheduled 4.1","4.1","2016-03-02","232","Serum","Aminotransferase, alanine (ALT)","pkat/L",0.258432641599254,"0","0.58"
"01-013","Unscheduled 4.1","4.1","2016-03-02","232","Serum","Aminotransferase, aspartate (AST)","pkat/L",0.478588678412311,"0","0.58"
"01-013","Unscheduled 4.1","4.1","2016-03-02","232","Serum","Calcium","mmol/L",2.11839504922422,"2.2","2.6"
"01-013","Unscheduled 4.1","4.1","2016-03-02","232","Serum","Chloride","mmol/L",99.82126176556,"98","106"
"01-013","Unscheduled 4.1","4.1","2016-03-02","232","Serum","Creatinine","μmol/L",91.9480656990301,"61.9","115"
"01-013","Unscheduled 4.1","4.1","2016-03-02","232","Serum","Direct Bilirubin","μmol/L",1.69174728213181,"0","5.1"
"01-013","Unscheduled 4.1","4.1","2016-03-02","232","Serum","IgE","mg/L",0.344809626094944,"0.1","0.4"
"01-013","Unscheduled 4.1","4.1","2016-03-02","232","Serum","Magnesium","mmol/L",1.06097968448812,"0.62","0.99"
"01-013","Unscheduled 4.1","4.1","2016-03-02","232","Blood","Platelet count","x 109/L",113.686521932303,"150","350"
"01-013","Unscheduled 4.1","4.1","2016-03-02","232","Serum","Potassium","mmol/L",4.42455990683053,"3.5","5"
"01-013","Unscheduled 4.1","4.1","2016-03-02","232","Blood","RBC count","x 1012 cells/L",5.42991875324651,"4.2","5.9"
"01-013","Unscheduled 4.1","4.1","2016-03-02","232","Serum","Sodium","mmol/L",145.850859543941,"136","145"
"01-013","Unscheduled 4.1","4.1","2016-03-02","232","Serum","Total Bilirubin","μmol/L",17.6582277305605,"5.1","20.5"
"01-013","Unscheduled 4.1","4.1","2016-03-02","232","Blood","WBC count","x 109 cells/L",8.14532931539884,"4.5","11"
"01-013","Visit 5","5","2016-04-15","276","Serum","Albumin","g/L",56.3347194281717,"35","55"
"01-013","Visit 5","5","2016-04-15","276","Serum","Alkaline phosphatase (ALP)","μkat/L",0.246333072216862,"0.5","1.5"
"01-013","Visit 5","5","2016-04-15","276","Serum","Aminotransferase, alanine (ALT)","pkat/L",0.262900991585928,"0","0.58"
"01-013","Visit 5","5","2016-04-15","276","Serum","Aminotransferase, aspartate (AST)","pkat/L",0.177212990614355,"0","0.58"
"01-013","Visit 5","5","2016-04-15","276","Serum","Calcium","mmol/L",2.67830825929582,"2.2","2.6"
"01-013","Visit 5","5","2016-04-15","276","Serum","Chloride","mmol/L",,"98","106"
"01-013","Visit 5","5","2016-04-15","276","Serum","Creatinine","μmol/L",108.505354230132,"61.9","115"
"01-013","Visit 5","5","2016-04-15","276","Serum","Direct Bilirubin","μmol/L",,"0","5.1"
"01-013","Visit 5","5","2016-04-15","276","Serum","IgE","mg/L",0.321888920291902,"0.1","0.4"
"01-013","Visit 5","5","2016-04-15","276","Serum","Magnesium","mmol/L",0.778934472179033,"0.62","0.99"
"01-013","Visit 5","5","2016-04-15","276","Blood","Platelet count","x 109/L",116.435348656289,"150","350"
"01-013","Visit 5","5","2016-04-15","276","Serum","Potassium","mmol/L",4.35831243537953,"3.5","5"
"01-013","Visit 5","5","2016-04-15","276","Blood","RBC count","x 1012 cells/L",4.20297456987509,"4.2","5.9"
"01-013","Visit 5","5","2016-04-15","276","Serum","Sodium","mmol/L",143.617652285733,"136","145"
"01-013","Visit 5","5","2016-04-15","276","Serum","Total Bilirubin","μmol/L",20.0868860814231,"5.1","20.5"
"01-013","Visit 5","5","2016-04-15","276","Blood","WBC count","x 109 cells/L",10.882152086181,"4.5","11"
"01-014","Screening","0","2015-07-24","1","Serum","Albumin","g/L",54.4247543180065,"35","55"
"01-014","Screening","0","2015-07-24","1","Serum","Alkaline phosphatase (ALP)","μkat/L",0.459285738200132,"0.5","1.5"
"01-014","Screening","0","2015-07-24","1","Serum","Aminotransferase, alanine (ALT)","pkat/L",0.462110712811875,"0","0.58"
"01-014","Screening","0","2015-07-24","1","Serum","Aminotransferase, aspartate (AST)","pkat/L",0,"0","0.58"
"01-014","Screening","0","2015-07-24","1","Serum","Calcium","mmol/L",2.07613687706431,"2.2","2.6"
"01-014","Screening","0","2015-07-24","1","Serum","Chloride","mmol/L",104.783367438116,"98","106"
"01-014","Screening","0","2015-07-24","1","Serum","Creatinine","μmol/L",94.3817998968779,"61.9","115"
"01-014","Screening","0","2015-07-24","1","Serum","Direct Bilirubin","μmol/L",0,"0","5.1"
"01-014","Screening","0","2015-07-24","1","Serum","IgE","mg/L",0.267635757657066,"0.1","0.4"
"01-014","Screening","0","2015-07-24","1","Serum","Magnesium","mmol/L",0.809909140439191,"0.62","0.99"
"01-014","Screening","0","2015-07-24","1","Blood","Platelet count","x 109/L",267.982350919185,"150","350"
"01-014","Screening","0","2015-07-24","1","Serum","Potassium","mmol/L",4.74701063289354,"3.5","5"
"01-014","Screening","0","2015-07-24","1","Blood","RBC count","x 1012 cells/L",4.2606566527605,"4.2","5.9"
"01-014","Screening","0","2015-07-24","1","Serum","Sodium","mmol/L",140.57298778291,"136","145"
"01-014","Screening","0","2015-07-24","1","Serum","Total Bilirubin","μmol/L",7.90717311986534,"5.1","20.5"
"01-014","Screening","0","2015-07-24","1","Blood","WBC count","x 109 cells/L",7.21785337164291,"4.5","11"
"01-014","Visit 1","1","2015-09-17","56","Serum","Albumin","g/L",35.8239056335028,"35","55"
"01-014","Visit 1","1","2015-09-17","56","Serum","Alkaline phosphatase (ALP)","μkat/L",1.70566598918395,"0.5","1.5"
"01-014","Visit 1","1","2015-09-17","56","Serum","Aminotransferase, alanine (ALT)","pkat/L",0.144609845266858,"0","0.58"
"01-014","Visit 1","1","2015-09-17","56","Serum","Aminotransferase, aspartate (AST)","pkat/L",0.276862183715109,"0","0.58"
"01-014","Visit 1","1","2015-09-17","56","Serum","Calcium","mmol/L",,"2.2","2.6"
"01-014","Visit 1","1","2015-09-17","56","Serum","Chloride","mmol/L",97.1974631314077,"98","106"
"01-014","Visit 1","1","2015-09-17","56","Serum","Creatinine","μmol/L",89.0707439584603,"61.9","115"
"01-014","Visit 1","1","2015-09-17","56","Serum","Direct Bilirubin","μmol/L",4.96095024956007,"0","5.1"
"01-014","Visit 1","1","2015-09-17","56","Serum","IgE","mg/L",,"0.1","0.4"
"01-014","Visit 1","1","2015-09-17","56","Serum","Magnesium","mmol/L",0.695836698962725,"0.62","0.99"
"01-014","Visit 1","1","2015-09-17","56","Blood","Platelet count","x 109/L",374.79160801141,"150","350"
"01-014","Visit 1","1","2015-09-17","56","Serum","Potassium","mmol/L",3.37829065401801,"3.5","5"
"01-014","Visit 1","1","2015-09-17","56","Blood","RBC count","x 1012 cells/L",6.84425580001966,"4.2","5.9"
"01-014","Visit 1","1","2015-09-17","56","Serum","Sodium","mmol/L",140.800509611541,"136","145"
"01-014","Visit 1","1","2015-09-17","56","Serum","Total Bilirubin","μmol/L",16.5150061505764,"5.1","20.5"
"01-014","Visit 1","1","2015-09-17","56","Blood","WBC count","x 109 cells/L",5.55223696517204,"4.5","11"
"01-014","Visit 2","2","2015-11-14","114","Serum","Albumin","g/L",52.8316273601826,"35","55"
"01-014","Visit 2","2","2015-11-14","114","Serum","Alkaline phosphatase (ALP)","μkat/L",0.670520717874627,"0.5","1.5"
"01-014","Visit 2","2","2015-11-14","114","Serum","Aminotransferase, alanine (ALT)","pkat/L",0.202102538702251,"0","0.58"
"01-014","Visit 2","2","2015-11-14","114","Serum","Aminotransferase, aspartate (AST)","pkat/L",,"0","0.58"
"01-014","Visit 2","2","2015-11-14","114","Serum","Calcium","mmol/L",2.6047520759922,"2.2","2.6"
"01-014","Visit 2","2","2015-11-14","114","Serum","Chloride","mmol/L",103.607370469467,"98","106"
"01-014","Visit 2","2","2015-11-14","114","Serum","Creatinine","μmol/L",81.2771164993477,"61.9","115"
"01-014","Visit 2","2","2015-11-14","114","Serum","Direct Bilirubin","μmol/L",7.90747496724615,"0","5.1"
"01-014","Visit 2","2","2015-11-14","114","Serum","IgE","mg/L",0.239658790921555,"0.1","0.4"
"01-014","Visit 2","2","2015-11-14","114","Serum","Magnesium","mmol/L",0.738644307823301,"0.62","0.99"
"01-014","Visit 2","2","2015-11-14","114","Blood","Platelet count","x 109/L",234.213651110506,"150","350"
"01-014","Visit 2","2","2015-11-14","114","Serum","Potassium","mmol/L",4.95024381375327,"3.5","5"
"01-014","Visit 2","2","2015-11-14","114","Blood","RBC count","x 1012 cells/L",3.40086322471893,"4.2","5.9"
"01-014","Visit 2","2","2015-11-14","114","Serum","Sodium","mmol/L",141.93788466341,"136","145"
"01-014","Visit 2","2","2015-11-14","114","Serum","Total Bilirubin","μmol/L",0,"5.1","20.5"
"01-014","Visit 2","2","2015-11-14","114","Blood","WBC count","x 109 cells/L",7.81138971371335,"4.5","11"
"01-014","Visit 3","3","2016-01-09","170","Serum","Albumin","g/L",53.1240629475315,"35","55"
"01-014","Visit 3","3","2016-01-09","170","Serum","Alkaline phosphatase (ALP)","μkat/L",1.21455825598498,"0.5","1.5"
"01-014","Visit 3","3","2016-01-09","170","Serum","Aminotransferase, alanine (ALT)","pkat/L",0.126134711620434,"0","0.58"
"01-014","Visit 3","3","2016-01-09","170","Serum","Aminotransferase, aspartate (AST)","pkat/L",0,"0","0.58"
"01-014","Visit 3","3","2016-01-09","170","Serum","Calcium","mmol/L",2.58673567408203,"2.2","2.6"
"01-014","Visit 3","3","2016-01-09","170","Serum","Chloride","mmol/L",,"98","106"
"01-014","Visit 3","3","2016-01-09","170","Serum","Creatinine","μmol/L",48.8452337575893,"61.9","115"
"01-014","Visit 3","3","2016-01-09","170","Serum","Direct Bilirubin","μmol/L",0,"0","5.1"
"01-014","Visit 3","3","2016-01-09","170","Serum","IgE","mg/L",0.251759179138089,"0.1","0.4"
"01-014","Visit 3","3","2016-01-09","170","Serum","Magnesium","mmol/L",0.736836695189363,"0.62","0.99"
"01-014","Visit 3","3","2016-01-09","170","Blood","Platelet count","x 109/L",238.308943559446,"150","350"
"01-014","Visit 3","3","2016-01-09","170","Serum","Potassium","mmol/L",3.64217854868668,"3.5","5"
"01-014","Visit 3","3","2016-01-09","170","Blood","RBC count","x 1012 cells/L",5.27347529713308,"4.2","5.9"
"01-014","Visit 3","3","2016-01-09","170","Serum","Sodium","mmol/L",141.284406112428,"136","145"
"01-014","Visit 3","3","2016-01-09","170","Serum","Total Bilirubin","μmol/L",0.4532154505814,"5.1","20.5"
"01-014","Visit 3","3","2016-01-09","170","Blood","WBC count","x 109 cells/L",7.11957909796345,"4.5","11"
"01-015","Screening","0","2015-04-28","1","Serum","Albumin","g/L",54.3894945578406,"35","55"
"01-015","Screening","0","2015-04-28","1","Serum","Alkaline phosphatase (ALP)","μkat/L",1.65709631044265,"0.5","1.5"
"01-015","Screening","0","2015-04-28","1","Serum","Aminotransferase, alanine (ALT)","pkat/L",0.514565723637921,"0","0.58"
"01-015","Screening","0","2015-04-28","1","Serum","Aminotransferase, aspartate (AST)","pkat/L",0.477310876025826,"0","0.58"
"01-015","Screening","0","2015-04-28","1","Serum","Calcium","mmol/L",2.16582843973285,"2.2","2.6"
"01-015","Screening","0","2015-04-28","1","Serum","Chloride","mmol/L",103.843597691495,"98","106"
"01-015","Screening","0","2015-04-28","1","Serum","Creatinine","μmol/L",126.901555059458,"61.9","115"
"01-015","Screening","0","2015-04-28","1","Serum","Direct Bilirubin","μmol/L",4.207983736782,"0","5.1"
"01-015","Screening","0","2015-04-28","1","Serum","IgE","mg/L",0.353729218975822,"0.1","0.4"
"01-015","Screening","0","2015-04-28","1","Serum","Magnesium","mmol/L",1.02915809609698,"0.62","0.99"
"01-015","Screening","0","2015-04-28","1","Blood","Platelet count","x 109/L",0,"150","350"
"01-015","Screening","0","2015-04-28","1","Serum","Potassium","mmol/L",3.45976064444273,"3.5","5"
"01-015","Screening","0","2015-04-28","1","Blood","RBC count","x 1012 cells/L",5.21200648761923,"4.2","5.9"
"01-015","Screening","0","2015-04-28","1","Serum","Sodium","mmol/L",137.135510386073,"136","145"
"01-015","Screening","0","2015-04-28","1","Serum","Total Bilirubin","μmol/L",8.9710881163771,"5.1","20.5"
"01-015","Screening","0","2015-04-28","1","Blood","WBC count","x 109 cells/L",0,"4.5","11"
"01-015","Visit 1","1","2015-06-15","49","Serum","Albumin","g/L",36.9590520130821,"35","55"
"01-015","Visit 1","1","2015-06-15","49","Serum","Alkaline phosphatase (ALP)","μkat/L",0.948999764057629,"0.5","1.5"
"01-015","Visit 1","1","2015-06-15","49","Serum","Aminotransferase, alanine (ALT)","pkat/L",0.694286749330641,"0","0.58"
"01-015","Visit 1","1","2015-06-15","49","Serum","Aminotransferase, aspartate (AST)","pkat/L",0,"0","0.58"
"01-015","Visit 1","1","2015-06-15","49","Serum","Calcium","mmol/L",,"2.2","2.6"
"01-015","Visit 1","1","2015-06-15","49","Serum","Chloride","mmol/L",97.6123935588966,"98","106"
"01-015","Visit 1","1","2015-06-15","49","Serum","Creatinine","μmol/L",90.5009083217971,"61.9","115"
"01-015","Visit 1","1","2015-06-15","49","Serum","Direct Bilirubin","μmol/L",4.3127196495773,"0","5.1"
"01-015","Visit 1","1","2015-06-15","49","Serum","IgE","mg/L",0.276693683976999,"0.1","0.4"
"01-015","Visit 1","1","2015-06-15","49","Serum","Magnesium","mmol/L",0.940018646160276,"0.62","0.99"
"01-015","Visit 1","1","2015-06-15","49","Blood","Platelet count","x 109/L",216.284553912321,"150","350"
"01-015","Visit 1","1","2015-06-15","49","Serum","Potassium","mmol/L",4.33373649956794,"3.5","5"
"01-015","Visit 1","1","2015-06-15","49","Blood","RBC count","x 1012 cells/L",6.04925365190444,"4.2","5.9"
"01-015","Visit 1","1","2015-06-15","49","Serum","Sodium","mmol/L",150.349002965674,"136","145"
"01-015","Visit 1","1","2015-06-15","49","Serum","Total Bilirubin","μmol/L",0,"5.1","20.5"
"01-015","Visit 1","1","2015-06-15","49","Blood","WBC count","x 109 cells/L",6.13342148543612,"4.5","11"
"01-015","Visit 2","2","2015-08-17","112","Serum","Albumin","g/L",46.6592031478935,"35","55"
"01-015","Visit 2","2","2015-08-17","112","Serum","Alkaline phosphatase (ALP)","μkat/L",0.464565573575409,"0.5","1.5"
"01-015","Visit 2","2","2015-08-17","112","Serum","Aminotransferase, alanine (ALT)","pkat/L",0.564622629906892,"0","0.58"
"01-015","Visit 2","2","2015-08-17","112","Serum","Aminotransferase, aspartate (AST)","pkat/L",,"0","0.58"
"01-015","Visit 2","2","2015-08-17","112","Serum","Calcium","mmol/L",2.42264812295553,"2.2","2.6"
"01-015","Visit 2","2","2015-08-17","112","Serum","Chloride","mmol/L",99.1469586493454,"98","106"
"01-015","Visit 2","2","2015-08-17","112","Serum","Creatinine","μmol/L",86.8537171877042,"61.9","115"
"01-015","Visit 2","2","2015-08-17","112","Serum","Direct Bilirubin","μmol/L",1.81858760279258,"0","5.1"
"01-015","Visit 2","2","2015-08-17","112","Serum","IgE","mg/L",,"0.1","0.4"
"01-015","Visit 2","2","2015-08-17","112","Serum","Magnesium","mmol/L",1.26566947359882,"0.62","0.99"
"01-015","Visit 2","2","2015-08-17","112","Blood","Platelet count","x 109/L",258.512890626098,"150","350"
"01-015","Visit 2","2","2015-08-17","112","Serum","Potassium","mmol/L",3.62645006890625,"3.5","5"
"01-015","Visit 2","2","2015-08-17","112","Blood","RBC count","x 1012 cells/L",3.69685517204265,"4.2","5.9"
"01-015","Visit 2","2","2015-08-17","112","Serum","Sodium","mmol/L",133.289752426752,"136","145"
"01-015","Visit 2","2","2015-08-17","112","Serum","Total Bilirubin","μmol/L",11.7745709765117,"5.1","20.5"
"01-015","Visit 2","2","2015-08-17","112","Blood","WBC count","x 109 cells/L",0,"4.5","11"
"01-016","Screening","0","2015-12-21","1","Serum","Albumin","g/L",31.9224806882721,"35","55"
"01-016","Screening","0","2015-12-21","1","Serum","Alkaline phosphatase (ALP)","μkat/L",1.51222153037859,"0.5","1.5"
"01-016","Screening","0","2015-12-21","1","Serum","Aminotransferase, alanine (ALT)","pkat/L",0,"0","0.58"
"01-016","Screening","0","2015-12-21","1","Serum","Aminotransferase, aspartate (AST)","pkat/L",,"0","0.58"
"01-016","Screening","0","2015-12-21","1","Serum","Calcium","mmol/L",2.4785428667719,"2.2","2.6"
"01-016","Screening","0","2015-12-21","1","Serum","Chloride","mmol/L",103.70826645931,"98","106"
"01-016","Screening","0","2015-12-21","1","Serum","Creatinine","μmol/L",99.1317793847082,"61.9","115"
"01-016","Screening","0","2015-12-21","1","Serum","Direct Bilirubin","μmol/L",1.16626912331543,"0","5.1"
"01-016","Screening","0","2015-12-21","1","Serum","IgE","mg/L",0.0184098050722344,"0.1","0.4"
"01-016","Screening","0","2015-12-21","1","Serum","Magnesium","mmol/L",0.966975364660916,"0.62","0.99"
"01-016","Screening","0","2015-12-21","1","Blood","Platelet count","x 109/L",431.470291242682,"150","350"
"01-016","Screening","0","2015-12-21","1","Serum","Potassium","mmol/L",3.8832282243051,"3.5","5"
"01-016","Screening","0","2015-12-21","1","Blood","RBC count","x 1012 cells/L",5.89380830215865,"4.2","5.9"
"01-016","Screening","0","2015-12-21","1","Serum","Sodium","mmol/L",145.515080234843,"136","145"
"01-016","Screening","0","2015-12-21","1","Serum","Total Bilirubin","μmol/L",12.020172219768,"5.1","20.5"
"01-016","Screening","0","2015-12-21","1","Blood","WBC count","x 109 cells/L",9.87374072117297,"4.5","11"
"01-016","Visit 1","1","2016-02-09","51","Serum","Albumin","g/L",62.7704896671837,"35","55"
"01-016","Visit 1","1","2016-02-09","51","Serum","Alkaline phosphatase (ALP)","μkat/L",1.1291750752376,"0.5","1.5"
"01-016","Visit 1","1","2016-02-09","51","Serum","Aminotransferase, alanine (ALT)","pkat/L",0.0529644795664716,"0","0.58"
"01-016","Visit 1","1","2016-02-09","51","Serum","Aminotransferase, aspartate (AST)","pkat/L",0.212785525067134,"0","0.58"
"01-016","Visit 1","1","2016-02-09","51","Serum","Calcium","mmol/L",,"2.2","2.6"
"01-016","Visit 1","1","2016-02-09","51","Serum","Chloride","mmol/L",97.4638694756513,"98","106"
"01-016","Visit 1","1","2016-02-09","51","Serum","Creatinine","μmol/L",156.562788692177,"61.9","115"
"01-016","Visit 1","1","2016-02-09","51","Serum","Direct Bilirubin","μmol/L",7.93967017443995,"0","5.1"
"01-016","Visit 1","1","2016-02-09","51","Serum","IgE","mg/L",0.319070861636469,"0.1","0.4"
"01-016","Visit 1","1","2016-02-09","51","Serum","Magnesium","mmol/L",0.62474631601116,"0.62","0.99"
"01-016","Visit 1","1","2016-02-09","51","Blood","Platelet count","x 109/L",212.212417297338,"150","350"
"01-016","Visit 1","1","2016-02-09","51","Serum","Potassium","mmol/L",5.05073688520751,"3.5","5"
"01-016","Visit 1","1","2016-02-09","51","Blood","RBC count","x 1012 cells/L",6.77643184224803,"4.2","5.9"
"01-016","Visit 1","1","2016-02-09","51","Serum","Sodium","mmol/L",142.207668825573,"136","145"
"01-016","Visit 1","1","2016-02-09","51","Serum","Total Bilirubin","μmol/L",9.958007593502,"5.1","20.5"
"01-016","Visit 1","1","2016-02-09","51","Blood","WBC count","x 109 cells/L",0,"4.5","11"
"01-016","Visit 2","2","2016-04-15","117","Serum","Albumin","g/L",41.770123326536,"35","55"
"01-016","Visit 2","2","2016-04-15","117","Serum","Alkaline phosphatase (ALP)","μkat/L",0.743069707664586,"0.5","1.5"
"01-016","Visit 2","2","2016-04-15","117","Serum","Aminotransferase, alanine (ALT)","pkat/L",0,"0","0.58"
"01-016","Visit 2","2","2016-04-15","117","Serum","Aminotransferase, aspartate (AST)","pkat/L",,"0","0.58"
"01-016","Visit 2","2","2016-04-15","117","Serum","Calcium","mmol/L",2.5264238637118,"2.2","2.6"
"01-016","Visit 2","2","2016-04-15","117","Serum","Chloride","mmol/L",102.894195951989,"98","106"
"01-016","Visit 2","2","2016-04-15","117","Serum","Creatinine","μmol/L",107.717021037046,"61.9","115"
"01-016","Visit 2","2","2016-04-15","117","Serum","Direct Bilirubin","μmol/L",2.52923831111465,"0","5.1"
"01-016","Visit 2","2","2016-04-15","117","Serum","IgE","mg/L",0.0892024782080367,"0.1","0.4"
"01-016","Visit 2","2","2016-04-15","117","Serum","Magnesium","mmol/L",0.749093467854069,"0.62","0.99"
"01-016","Visit 2","2","2016-04-15","117","Blood","Platelet count","x 109/L",193.264743519251,"150","350"
"01-016","Visit 2","2","2016-04-15","117","Serum","Potassium","mmol/L",4.16148502271027,"3.5","5"
"01-016","Visit 2","2","2016-04-15","117","Blood","RBC count","x 1012 cells/L",5.40256148727941,"4.2","5.9"
"01-016","Visit 2","2","2016-04-15","117","Serum","Sodium","mmol/L",146.818505455539,"136","145"
"01-016","Visit 2","2","2016-04-15","117","Serum","Total Bilirubin","μmol/L",10.1893285057101,"5.1","20.5"
"01-016","Visit 2","2","2016-04-15","117","Blood","WBC count","x 109 cells/L",7.41331229739558,"4.5","11"
"01-016","Visit 3","3","2016-06-09","172","Serum","Albumin","g/L",34.0695696820422,"35","55"
"01-016","Visit 3","3","2016-06-09","172","Serum","Alkaline phosphatase (ALP)","μkat/L",0.883680297467633,"0.5","1.5"
"01-016","Visit 3","3","2016-06-09","172","Serum","Aminotransferase, alanine (ALT)","pkat/L",,"0","0.58"
"01-016","Visit 3","3","2016-06-09","172","Serum","Aminotransferase, aspartate (AST)","pkat/L",0,"0","0.58"
"01-016","Visit 3","3","2016-06-09","172","Serum","Calcium","mmol/L",2.69992165386756,"2.2","2.6"
"01-016","Visit 3","3","2016-06-09","172","Serum","Chloride","mmol/L",,"98","106"
"01-016","Visit 3","3","2016-06-09","172","Serum","Creatinine","μmol/L",104.926316816877,"61.9","115"
"01-016","Visit 3","3","2016-06-09","172","Serum","Direct Bilirubin","μmol/L",2.06066124391447,"0","5.1"
"01-016","Visit 3","3","2016-06-09","172","Serum","IgE","mg/L",0.242184965149434,"0.1","0.4"
"01-016","Visit 3","3","2016-06-09","172","Serum","Magnesium","mmol/L",0.693149750412546,"0.62","0.99"
"01-016","Visit 3","3","2016-06-09","172","Blood","Platelet count","x 109/L",,"150","350"
"01-016","Visit 3","3","2016-06-09","172","Serum","Potassium","mmol/L",4.19791892847221,"3.5","5"
"01-016","Visit 3","3","2016-06-09","172","Blood","RBC count","x 1012 cells/L",,"4.2","5.9"
"01-016","Visit 3","3","2016-06-09","172","Serum","Sodium","mmol/L",138.764497975025,"136","145"
"01-016","Visit 3","3","2016-06-09","172","Serum","Total Bilirubin","μmol/L",9.08531050907173,"5.1","20.5"
"01-016","Visit 3","3","2016-06-09","172","Blood","WBC count","x 109 cells/L",1.1053062983609,"4.5","11"
"01-016","Visit 4","4","2016-08-01","225","Serum","Albumin","g/L",67.7539100597369,"35","55"
"01-016","Visit 4","4","2016-08-01","225","Serum","Alkaline phosphatase (ALP)","μkat/L",,"0.5","1.5"
"01-016","Visit 4","4","2016-08-01","225","Serum","Aminotransferase, alanine (ALT)","pkat/L",,"0","0.58"
"01-016","Visit 4","4","2016-08-01","225","Serum","Aminotransferase, aspartate (AST)","pkat/L",0.420814253598491,"0","0.58"
"01-016","Visit 4","4","2016-08-01","225","Serum","Calcium","mmol/L",2.16916295930105,"2.2","2.6"
"01-016","Visit 4","4","2016-08-01","225","Serum","Chloride","mmol/L",105.391455457908,"98","106"
"01-016","Visit 4","4","2016-08-01","225","Serum","Creatinine","μmol/L",77.822806823506,"61.9","115"
"01-016","Visit 4","4","2016-08-01","225","Serum","Direct Bilirubin","μmol/L",6.95300861549477,"0","5.1"
"01-016","Visit 4","4","2016-08-01","225","Serum","IgE","mg/L",0.207513431059913,"0.1","0.4"
"01-016","Visit 4","4","2016-08-01","225","Serum","Magnesium","mmol/L",0.884502726300536,"0.62","0.99"
"01-016","Visit 4","4","2016-08-01","225","Blood","Platelet count","x 109/L",,"150","350"
"01-016","Visit 4","4","2016-08-01","225","Serum","Potassium","mmol/L",3.98787386785207,"3.5","5"
"01-016","Visit 4","4","2016-08-01","225","Blood","RBC count","x 1012 cells/L",,"4.2","5.9"
"01-016","Visit 4","4","2016-08-01","225","Serum","Sodium","mmol/L",,"136","145"
"01-016","Visit 4","4","2016-08-01","225","Serum","Total Bilirubin","μmol/L",16.2720728083717,"5.1","20.5"
"01-016","Visit 4","4","2016-08-01","225","Blood","WBC count","x 109 cells/L",,"4.5","11"
"01-017","Screening","0","2015-02-12","1","Serum","Albumin","g/L",44.2679976221984,"35","55"
"01-017","Screening","0","2015-02-12","1","Serum","Alkaline phosphatase (ALP)","μkat/L",0.594447287900278,"0.5","1.5"
"01-017","Screening","0","2015-02-12","1","Serum","Aminotransferase, alanine (ALT)","pkat/L",0,"0","0.58"
"01-017","Screening","0","2015-02-12","1","Serum","Aminotransferase, aspartate (AST)","pkat/L",0.0199233255203901,"0","0.58"
"01-017","Screening","0","2015-02-12","1","Serum","Calcium","mmol/L",2.44335286185041,"2.2","2.6"
"01-017","Screening","0","2015-02-12","1","Serum","Chloride","mmol/L",100.326867032817,"98","106"
"01-017","Screening","0","2015-02-12","1","Serum","Creatinine","μmol/L",106.842054435848,"61.9","115"
"01-017","Screening","0","2015-02-12","1","Serum","Direct Bilirubin","μmol/L",0.751279607127888,"0","5.1"
"01-017","Screening","0","2015-02-12","1","Serum","IgE","mg/L",0.246693151314451,"0.1","0.4"
"01-017","Screening","0","2015-02-12","1","Serum","Magnesium","mmol/L",0.482032557174775,"0.62","0.99"
"01-017","Screening","0","2015-02-12","1","Blood","Platelet count","x 109/L",101.902431807224,"150","350"
"01-017","Screening","0","2015-02-12","1","Serum","Potassium","mmol/L",,"3.5","5"
"01-017","Screening","0","2015-02-12","1","Blood","RBC count","x 1012 cells/L",5.73475761065811,"4.2","5.9"
"01-017","Screening","0","2015-02-12","1","Serum","Sodium","mmol/L",143.947859638614,"136","145"
"01-017","Screening","0","2015-02-12","1","Serum","Total Bilirubin","μmol/L",9.91725513291151,"5.1","20.5"
"01-017","Screening","0","2015-02-12","1","Blood","WBC count","x 109 cells/L",8.65689839579431,"4.5","11"
"01-017","Visit 1","1","2015-04-04","52","Serum","Albumin","g/L",46.2494087116436,"35","55"
"01-017","Visit 1","1","2015-04-04","52","Serum","Alkaline phosphatase (ALP)","μkat/L",1.82176016616302,"0.5","1.5"
"01-017","Visit 1","1","2015-04-04","52","Serum","Aminotransferase, alanine (ALT)","pkat/L",0.311294823612392,"0","0.58"
"01-017","Visit 1","1","2015-04-04","52","Serum","Aminotransferase, aspartate (AST)","pkat/L",0.388562675836453,"0","0.58"
"01-017","Visit 1","1","2015-04-04","52","Serum","Calcium","mmol/L",,"2.2","2.6"
"01-017","Visit 1","1","2015-04-04","52","Serum","Chloride","mmol/L",103.045394019221,"98","106"
"01-017","Visit 1","1","2015-04-04","52","Serum","Creatinine","μmol/L",117.897265593463,"61.9","115"
"01-017","Visit 1","1","2015-04-04","52","Serum","Direct Bilirubin","μmol/L",0.852184700165432,"0","5.1"
"01-017","Visit 1","1","2015-04-04","52","Serum","IgE","mg/L",0.482628530516524,"0.1","0.4"
"01-017","Visit 1","1","2015-04-04","52","Serum","Magnesium","mmol/L",0.519797179867912,"0.62","0.99"
"01-017","Visit 1","1","2015-04-04","52","Blood","Platelet count","x 109/L",163.682096140391,"150","350"
"01-017","Visit 1","1","2015-04-04","52","Serum","Potassium","mmol/L",3.43582264992518,"3.5","5"
"01-017","Visit 1","1","2015-04-04","52","Blood","RBC count","x 1012 cells/L",4.44238143483607,"4.2","5.9"
"01-017","Visit 1","1","2015-04-04","52","Serum","Sodium","mmol/L",141.534453300143,"136","145"
"01-017","Visit 1","1","2015-04-04","52","Serum","Total Bilirubin","μmol/L",14.0207921622965,"5.1","20.5"
"01-017","Visit 1","1","2015-04-04","52","Blood","WBC count","x 109 cells/L",2.49122848556736,"4.5","11"
"01-017","Visit 2","2","2015-06-01","110","Serum","Albumin","g/L",52.2372984482254,"35","55"
"01-017","Visit 2","2","2015-06-01","110","Serum","Alkaline phosphatase (ALP)","μkat/L",1.42889507181819,"0.5","1.5"
"01-017","Visit 2","2","2015-06-01","110","Serum","Aminotransferase, alanine (ALT)","pkat/L",0.0289932436957296,"0","0.58"
"01-017","Visit 2","2","2015-06-01","110","Serum","Aminotransferase, aspartate (AST)","pkat/L",,"0","0.58"
"01-017","Visit 2","2","2015-06-01","110","Serum","Calcium","mmol/L",2.5328744693738,"2.2","2.6"
"01-017","Visit 2","2","2015-06-01","110","Serum","Chloride","mmol/L",106.603298203916,"98","106"
"01-017","Visit 2","2","2015-06-01","110","Serum","Creatinine","μmol/L",69.0643424462765,"61.9","115"
"01-017","Visit 2","2","2015-06-01","110","Serum","Direct Bilirubin","μmol/L",2.43592542381113,"0","5.1"
"01-017","Visit 2","2","2015-06-01","110","Serum","IgE","mg/L",0.256154268477539,"0.1","0.4"
"01-017","Visit 2","2","2015-06-01","110","Serum","Magnesium","mmol/L",0.745061356066431,"0.62","0.99"
"01-017","Visit 2","2","2015-06-01","110","Blood","Platelet count","x 109/L",376.397681773702,"150","350"
"01-017","Visit 2","2","2015-06-01","110","Serum","Potassium","mmol/L",5.17611180251673,"3.5","5"
"01-017","Visit 2","2","2015-06-01","110","Blood","RBC count","x 1012 cells/L",4.13833721807718,"4.2","5.9"
"01-017","Visit 2","2","2015-06-01","110","Serum","Sodium","mmol/L",142.724729492547,"136","145"
"01-017","Visit 2","2","2015-06-01","110","Serum","Total Bilirubin","μmol/L",20.5789994655609,"5.1","20.5"
"01-017","Visit 2","2","2015-06-01","110","Blood","WBC count","x 109 cells/L",8.88523719387585,"4.5","11"
"01-018","Screening","0","2015-02-13","1","Serum","Albumin","g/L",28.6344783877293,"35","55"
"01-018","Screening","0","2015-02-13","1","Serum","Alkaline phosphatase (ALP)","μkat/L",1.0905752142374,"0.5","1.5"
"01-018","Screening","0","2015-02-13","1","Serum","Aminotransferase, alanine (ALT)","pkat/L",0.505160956837904,"0","0.58"
"01-018","Screening","0","2015-02-13","1","Serum","Aminotransferase, aspartate (AST)","pkat/L",0.338429760887228,"0","0.58"
"01-018","Screening","0","2015-02-13","1","Serum","Calcium","mmol/L",2.40505512529952,"2.2","2.6"
"01-018","Screening","0","2015-02-13","1","Serum","Chloride","mmol/L",100.96860034653,"98","106"
"01-018","Screening","0","2015-02-13","1","Serum","Creatinine","μmol/L",,"61.9","115"
"01-018","Screening","0","2015-02-13","1","Serum","Direct Bilirubin","μmol/L",2.23399837660197,"0","5.1"
"01-018","Screening","0","2015-02-13","1","Serum","IgE","mg/L",0.132878364687157,"0.1","0.4"
"01-018","Screening","0","2015-02-13","1","Serum","Magnesium","mmol/L",0.758924657045009,"0.62","0.99"
"01-018","Screening","0","2015-02-13","1","Blood","Platelet count","x 109/L",180.925780254354,"150","350"
"01-018","Screening","0","2015-02-13","1","Serum","Potassium","mmol/L",4.78787897183714,"3.5","5"
"01-018","Screening","0","2015-02-13","1","Blood","RBC count","x 1012 cells/L",4.93054192968877,"4.2","5.9"
"01-018","Screening","0","2015-02-13","1","Serum","Sodium","mmol/L",144.361391918282,"136","145"
"01-018","Screening","0","2015-02-13","1","Serum","Total Bilirubin","μmol/L",8.82997313537612,"5.1","20.5"
"01-018","Screening","0","2015-02-13","1","Blood","WBC count","x 109 cells/L",8.79824137316978,"4.5","11"
"01-018","Visit 1","1","2015-04-04","51","Serum","Albumin","g/L",38.9639464810801,"35","55"
"01-018","Visit 1","1","2015-04-04","51","Serum","Alkaline phosphatase (ALP)","μkat/L",0.840727527891477,"0.5","1.5"
"01-018","Visit 1","1","2015-04-04","51","Serum","Aminotransferase, alanine (ALT)","pkat/L",0.0616805765709209,"0","0.58"
"01-018","Visit 1","1","2015-04-04","51","Serum","Aminotransferase, aspartate (AST)","pkat/L",0.766332699980969,"0","0.58"
"01-018","Visit 1","1","2015-04-04","51","Serum","Calcium","mmol/L",,"2.2","2.6"
"01-018","Visit 1","1","2015-04-04","51","Serum","Chloride","mmol/L",107.825598319221,"98","106"
"01-018","Visit 1","1","2015-04-04","51","Serum","Creatinine","μmol/L",29.6583969379298,"61.9","115"
"01-018","Visit 1","1","2015-04-04","51","Serum","Direct Bilirubin","μmol/L",2.68005618994082,"0","5.1"
"01-018","Visit 1","1","2015-04-04","51","Serum","IgE","mg/L",0.111156173785332,"0.1","0.4"
"01-018","Visit 1","1","2015-04-04","51","Serum","Magnesium","mmol/L",0.632551373510518,"0.62","0.99"
"01-018","Visit 1","1","2015-04-04","51","Blood","Platelet count","x 109/L",118.482590945629,"150","350"
"01-018","Visit 1","1","2015-04-04","51","Serum","Potassium","mmol/L",3.81346742558466,"3.5","5"
"01-018","Visit 1","1","2015-04-04","51","Blood","RBC count","x 1012 cells/L",3.64734340225825,"4.2","5.9"
"01-018","Visit 1","1","2015-04-04","51","Serum","Sodium","mmol/L",140.084922075062,"136","145"
"01-018","Visit 1","1","2015-04-04","51","Serum","Total Bilirubin","μmol/L",10.4150956062608,"5.1","20.5"
"01-018","Visit 1","1","2015-04-04","51","Blood","WBC count","x 109 cells/L",6.28152321185565,"4.5","11"
"01-019","Screening","0","2015-04-24","1","Serum","Albumin","g/L",61.0974076374578,"35","55"
"01-019","Screening","0","2015-04-24","1","Serum","Alkaline phosphatase (ALP)","μkat/L",1.37250131761165,"0.5","1.5"
"01-019","Screening","0","2015-04-24","1","Serum","Aminotransferase, alanine (ALT)","pkat/L",0.164943993502411,"0","0.58"
"01-019","Screening","0","2015-04-24","1","Serum","Aminotransferase, aspartate (AST)","pkat/L",0.194613868812165,"0","0.58"
"01-019","Screening","0","2015-04-24","1","Serum","Calcium","mmol/L",2.35504581106081,"2.2","2.6"
"01-019","Screening","0","2015-04-24","1","Serum","Chloride","mmol/L",93.839047649252,"98","106"
"01-019","Screening","0","2015-04-24","1","Serum","Creatinine","μmol/L",111.502326076589,"61.9","115"
"01-019","Screening","0","2015-04-24","1","Serum","Direct Bilirubin","μmol/L",3.26836044602966,"0","5.1"
"01-019","Screening","0","2015-04-24","1","Serum","IgE","mg/L",0.173721634661266,"0.1","0.4"
"01-019","Screening","0","2015-04-24","1","Serum","Magnesium","mmol/L",0.697410966082824,"0.62","0.99"
"01-019","Screening","0","2015-04-24","1","Blood","Platelet count","x 109/L",456.678225274279,"150","350"
"01-019","Screening","0","2015-04-24","1","Serum","Potassium","mmol/L",3.99592148430212,"3.5","5"
"01-019","Screening","0","2015-04-24","1","Blood","RBC count","x 1012 cells/L",4.8080472333965,"4.2","5.9"
"01-019","Screening","0","2015-04-24","1","Serum","Sodium","mmol/L",140.783775575645,"136","145"
"01-019","Screening","0","2015-04-24","1","Serum","Total Bilirubin","μmol/L",3.29164486364207,"5.1","20.5"
"01-019","Screening","0","2015-04-24","1","Blood","WBC count","x 109 cells/L",7.95824970996229,"4.5","11"
"01-019","Visit 1","1","2015-06-15","53","Serum","Albumin","g/L",42.9253645623885,"35","55"
"01-019","Visit 1","1","2015-06-15","53","Serum","Alkaline phosphatase (ALP)","μkat/L",0.889671973813787,"0.5","1.5"
"01-019","Visit 1","1","2015-06-15","53","Serum","Aminotransferase, alanine (ALT)","pkat/L",0.252477227919723,"0","0.58"
"01-019","Visit 1","1","2015-06-15","53","Serum","Aminotransferase, aspartate (AST)","pkat/L",0.379256300122657,"0","0.58"
"01-019","Visit 1","1","2015-06-15","53","Serum","Calcium","mmol/L",,"2.2","2.6"
"01-019","Visit 1","1","2015-06-15","53","Serum","Chloride","mmol/L",100.265838320933,"98","106"
"01-019","Visit 1","1","2015-06-15","53","Serum","Creatinine","μmol/L",68.3064933929743,"61.9","115"
"01-019","Visit 1","1","2015-06-15","53","Serum","Direct Bilirubin","μmol/L",6.3262942888608,"0","5.1"
"01-019","Visit 1","1","2015-06-15","53","Serum","IgE","mg/L",0.151717569962247,"0.1","0.4"
"01-019","Visit 1","1","2015-06-15","53","Serum","Magnesium","mmol/L",0.90017991704221,"0.62","0.99"
"01-019","Visit 1","1","2015-06-15","53","Blood","Platelet count","x 109/L",352.801398765362,"150","350"
"01-019","Visit 1","1","2015-06-15","53","Serum","Potassium","mmol/L",4.47571829610284,"3.5","5"
"01-019","Visit 1","1","2015-06-15","53","Blood","RBC count","x 1012 cells/L",4.47993667740587,"4.2","5.9"
"01-019","Visit 1","1","2015-06-15","53","Serum","Sodium","mmol/L",138.544412010564,"136","145"
"01-019","Visit 1","1","2015-06-15","53","Serum","Total Bilirubin","μmol/L",16.3873163970804,"5.1","20.5"
"01-019","Visit 1","1","2015-06-15","53","Blood","WBC count","x 109 cells/L",3.55480701128951,"4.5","11"
"01-019","Visit 2","2","2015-08-13","112","Serum","Albumin","g/L",45.927084177525,"35","55"
"01-019","Visit 2","2","2015-08-13","112","Serum","Alkaline phosphatase (ALP)","μkat/L",1.07150753473461,"0.5","1.5"
"01-019","Visit 2","2","2015-08-13","112","Serum","Aminotransferase, alanine (ALT)","pkat/L",0.287687201063858,"0","0.58"
"01-019","Visit 2","2","2015-08-13","112","Serum","Aminotransferase, aspartate (AST)","pkat/L",,"0","0.58"
"01-019","Visit 2","2","2015-08-13","112","Serum","Calcium","mmol/L",2.34339493613714,"2.2","2.6"
"01-019","Visit 2","2","2015-08-13","112","Serum","Chloride","mmol/L",96.6596969639023,"98","106"
"01-019","Visit 2","2","2015-08-13","112","Serum","Creatinine","μmol/L",135.322586802787,"61.9","115"
"01-019","Visit 2","2","2015-08-13","112","Serum","Direct Bilirubin","μmol/L",4.28523001205764,"0","5.1"
"01-019","Visit 2","2","2015-08-13","112","Serum","IgE","mg/L",0.293144736705968,"0.1","0.4"
"01-019","Visit 2","2","2015-08-13","112","Serum","Magnesium","mmol/L",0.817095411559925,"0.62","0.99"
"01-019","Visit 2","2","2015-08-13","112","Blood","Platelet count","x 109/L",67.3158408336754,"150","350"
"01-019","Visit 2","2","2015-08-13","112","Serum","Potassium","mmol/L",3.80946065092344,"3.5","5"
"01-019","Visit 2","2","2015-08-13","112","Blood","RBC count","x 1012 cells/L",3.01921139908626,"4.2","5.9"
"01-019","Visit 2","2","2015-08-13","112","Serum","Sodium","mmol/L",141.468724529527,"136","145"
"01-019","Visit 2","2","2015-08-13","112","Serum","Total Bilirubin","μmol/L",5.53389601121583,"5.1","20.5"
"01-019","Visit 2","2","2015-08-13","112","Blood","WBC count","x 109 cells/L",13.3499584157604,"4.5","11"
"01-019","Visit 3","3","2015-10-01","161","Serum","Albumin","g/L",35.8767510382789,"35","55"
"01-019","Visit 3","3","2015-10-01","161","Serum","Alkaline phosphatase (ALP)","μkat/L",0.802136234318001,"0.5","1.5"
"01-019","Visit 3","3","2015-10-01","161","Serum","Aminotransferase, alanine (ALT)","pkat/L",0.27449481085514,"0","0.58"
"01-019","Visit 3","3","2015-10-01","161","Serum","Aminotransferase, aspartate (AST)","pkat/L",0.178113162788957,"0","0.58"
"01-019","Visit 3","3","2015-10-01","161","Serum","Calcium","mmol/L",2.53925930778775,"2.2","2.6"
"01-019","Visit 3","3","2015-10-01","161","Serum","Chloride","mmol/L",,"98","106"
"01-019","Visit 3","3","2015-10-01","161","Serum","Creatinine","μmol/L",23.5902341047823,"61.9","115"
"01-019","Visit 3","3","2015-10-01","161","Serum","Direct Bilirubin","μmol/L",2.34339745432055,"0","5.1"
"01-019","Visit 3","3","2015-10-01","161","Serum","IgE","mg/L",0,"0.1","0.4"
"01-019","Visit 3","3","2015-10-01","161","Serum","Magnesium","mmol/L",1.02427372472229,"0.62","0.99"
"01-019","Visit 3","3","2015-10-01","161","Blood","Platelet count","x 109/L",269.21862928104,"150","350"
"01-019","Visit 3","3","2015-10-01","161","Serum","Potassium","mmol/L",4.86654018936137,"3.5","5"
"01-019","Visit 3","3","2015-10-01","161","Blood","RBC count","x 1012 cells/L",5.55265129321294,"4.2","5.9"
"01-019","Visit 3","3","2015-10-01","161","Serum","Sodium","mmol/L",142.685093876298,"136","145"
"01-019","Visit 3","3","2015-10-01","161","Serum","Total Bilirubin","μmol/L",0.493949977986793,"5.1","20.5"
"01-019","Visit 3","3","2015-10-01","161","Blood","WBC count","x 109 cells/L",5.26269898008904,"4.5","11"
"01-019","Visit 4","4","2015-12-01","222","Serum","Albumin","g/L",55.2882371950313,"35","55"
"01-019","Visit 4","4","2015-12-01","222","Serum","Alkaline phosphatase (ALP)","μkat/L",,"0.5","1.5"
"01-019","Visit 4","4","2015-12-01","222","Serum","Aminotransferase, alanine (ALT)","pkat/L",,"0","0.58"
"01-019","Visit 4","4","2015-12-01","222","Serum","Aminotransferase, aspartate (AST)","pkat/L",0.173813792186011,"0","0.58"
"01-019","Visit 4","4","2015-12-01","222","Serum","Calcium","mmol/L",2.7651665855075,"2.2","2.6"
"01-019","Visit 4","4","2015-12-01","222","Serum","Chloride","mmol/L",100.483955695593,"98","106"
"01-019","Visit 4","4","2015-12-01","222","Serum","Creatinine","μmol/L",67.4001706969365,"61.9","115"
"01-019","Visit 4","4","2015-12-01","222","Serum","Direct Bilirubin","μmol/L",,"0","5.1"
"01-019","Visit 4","4","2015-12-01","222","Serum","IgE","mg/L",0.190729878491545,"0.1","0.4"
"01-019","Visit 4","4","2015-12-01","222","Serum","Magnesium","mmol/L",0.769615642913634,"0.62","0.99"
"01-019","Visit 4","4","2015-12-01","222","Blood","Platelet count","x 109/L",,"150","350"
"01-019","Visit 4","4","2015-12-01","222","Serum","Potassium","mmol/L",3.46890219346989,"3.5","5"
"01-019","Visit 4","4","2015-12-01","222","Blood","RBC count","x 1012 cells/L",,"4.2","5.9"
"01-019","Visit 4","4","2015-12-01","222","Serum","Sodium","mmol/L",,"136","145"
"01-019","Visit 4","4","2015-12-01","222","Serum","Total Bilirubin","μmol/L",0,"5.1","20.5"
"01-019","Visit 4","4","2015-12-01","222","Blood","WBC count","x 109 cells/L",,"4.5","11"
"01-021","Screening","0","2015-10-04","1","Serum","Albumin","g/L",47.2576666949737,"35","55"
"01-021","Screening","0","2015-10-04","1","Serum","Alkaline phosphatase (ALP)","μkat/L",0.470915452362633,"0.5","1.5"
"01-021","Screening","0","2015-10-04","1","Serum","Aminotransferase, alanine (ALT)","pkat/L",0.855779836564876,"0","0.58"
"01-021","Screening","0","2015-10-04","1","Serum","Aminotransferase, aspartate (AST)","pkat/L",0.687490890603865,"0","0.58"
"01-021","Screening","0","2015-10-04","1","Serum","Calcium","mmol/L",2.43261631782083,"2.2","2.6"
"01-021","Screening","0","2015-10-04","1","Serum","Chloride","mmol/L",103.622922065477,"98","106"
"01-021","Screening","0","2015-10-04","1","Serum","Creatinine","μmol/L",88.3073691497462,"61.9","115"
"01-021","Screening","0","2015-10-04","1","Serum","Direct Bilirubin","μmol/L",1.46654150714583,"0","5.1"
"01-021","Screening","0","2015-10-04","1","Serum","IgE","mg/L",0.0932940231198343,"0.1","0.4"
"01-021","Screening","0","2015-10-04","1","Serum","Magnesium","mmol/L",0.713399879281748,"0.62","0.99"
"01-021","Screening","0","2015-10-04","1","Blood","Platelet count","x 109/L",195.26711878301,"150","350"
"01-021","Screening","0","2015-10-04","1","Serum","Potassium","mmol/L",4.67061290661943,"3.5","5"
"01-021","Screening","0","2015-10-04","1","Blood","RBC count","x 1012 cells/L",5.70892614301899,"4.2","5.9"
"01-021","Screening","0","2015-10-04","1","Serum","Sodium","mmol/L",140.011575118913,"136","145"
"01-021","Screening","0","2015-10-04","1","Serum","Total Bilirubin","μmol/L",0,"5.1","20.5"
"01-021","Screening","0","2015-10-04","1","Blood","WBC count","x 109 cells/L",7.1153035122301,"4.5","11"
"01-022","Screening","0","2015-10-01","1","Serum","Albumin","g/L",33.3565115629789,"35","55"
"01-022","Screening","0","2015-10-01","1","Serum","Alkaline phosphatase (ALP)","μkat/L",0,"0.5","1.5"
"01-022","Screening","0","2015-10-01","1","Serum","Aminotransferase, alanine (ALT)","pkat/L",0.615844967282719,"0","0.58"
"01-022","Screening","0","2015-10-01","1","Serum","Aminotransferase, aspartate (AST)","pkat/L",0.645776593185982,"0","0.58"
"01-022","Screening","0","2015-10-01","1","Serum","Calcium","mmol/L",2.49271018004554,"2.2","2.6"
"01-022","Screening","0","2015-10-01","1","Serum","Chloride","mmol/L",100.285778925612,"98","106"
"01-022","Screening","0","2015-10-01","1","Serum","Creatinine","μmol/L",81.448574112046,"61.9","115"
"01-022","Screening","0","2015-10-01","1","Serum","Direct Bilirubin","μmol/L",3.20823002490955,"0","5.1"
"01-022","Screening","0","2015-10-01","1","Serum","IgE","mg/L",0.227571326770914,"0.1","0.4"
"01-022","Screening","0","2015-10-01","1","Serum","Magnesium","mmol/L",0.60744222276649,"0.62","0.99"
"01-022","Screening","0","2015-10-01","1","Blood","Platelet count","x 109/L",159.169671905121,"150","350"
"01-022","Screening","0","2015-10-01","1","Serum","Potassium","mmol/L",4.54912010989528,"3.5","5"
"01-022","Screening","0","2015-10-01","1","Blood","RBC count","x 1012 cells/L",5.02316112685716,"4.2","5.9"
"01-022","Screening","0","2015-10-01","1","Serum","Sodium","mmol/L",144.97890323362,"136","145"
"01-022","Screening","0","2015-10-01","1","Serum","Total Bilirubin","μmol/L",13.8703343873501,"5.1","20.5"
"01-022","Screening","0","2015-10-01","1","Blood","WBC count","x 109 cells/L",8.42339016413678,"4.5","11"
"01-022","Visit 1","1","2015-11-28","59","Serum","Albumin","g/L",38.5304580271029,"35","55"
"01-022","Visit 1","1","2015-11-28","59","Serum","Alkaline phosphatase (ALP)","μkat/L",2.22737200083314,"0.5","1.5"
"01-022","Visit 1","1","2015-11-28","59","Serum","Aminotransferase, alanine (ALT)","pkat/L",0.0858247496446498,"0","0.58"
"01-022","Visit 1","1","2015-11-28","59","Serum","Aminotransferase, aspartate (AST)","pkat/L",0.00101797751824223,"0","0.58"
"01-022","Visit 1","1","2015-11-28","59","Serum","Calcium","mmol/L",,"2.2","2.6"
"01-022","Visit 1","1","2015-11-28","59","Serum","Chloride","mmol/L",110.993263758816,"98","106"
"01-022","Visit 1","1","2015-11-28","59","Serum","Creatinine","μmol/L",84.4268878568347,"61.9","115"
"01-022","Visit 1","1","2015-11-28","59","Serum","Direct Bilirubin","μmol/L",0,"0","5.1"
"01-022","Visit 1","1","2015-11-28","59","Serum","IgE","mg/L",0.0340886089768391,"0.1","0.4"
"01-022","Visit 1","1","2015-11-28","59","Serum","Magnesium","mmol/L",0.989167273101675,"0.62","0.99"
"01-022","Visit 1","1","2015-11-28","59","Blood","Platelet count","x 109/L",74.8114565323953,"150","350"
"01-022","Visit 1","1","2015-11-28","59","Serum","Potassium","mmol/L",4.54977211274216,"3.5","5"
"01-022","Visit 1","1","2015-11-28","59","Blood","RBC count","x 1012 cells/L",3.55857577269819,"4.2","5.9"
"01-022","Visit 1","1","2015-11-28","59","Serum","Sodium","mmol/L",131.049801352124,"136","145"
"01-022","Visit 1","1","2015-11-28","59","Serum","Total Bilirubin","μmol/L",18.4302557594404,"5.1","20.5"
"01-022","Visit 1","1","2015-11-28","59","Blood","WBC count","x 109 cells/L",10.1703192117102,"4.5","11"
"01-022","Visit 2","2","2016-01-21","113","Serum","Albumin","g/L",64.1417793258478,"35","55"
"01-022","Visit 2","2","2016-01-21","113","Serum","Alkaline phosphatase (ALP)","μkat/L",0.938099682294335,"0.5","1.5"
"01-022","Visit 2","2","2016-01-21","113","Serum","Aminotransferase, alanine (ALT)","pkat/L",0.098800069569645,"0","0.58"
"01-022","Visit 2","2","2016-01-21","113","Serum","Aminotransferase, aspartate (AST)","pkat/L",,"0","0.58"
"01-022","Visit 2","2","2016-01-21","113","Serum","Calcium","mmol/L",2.66571974395197,"2.2","2.6"
"01-022","Visit 2","2","2016-01-21","113","Serum","Chloride","mmol/L",99.0878388913608,"98","106"
"01-022","Visit 2","2","2016-01-21","113","Serum","Creatinine","μmol/L",98.4523177596614,"61.9","115"
"01-022","Visit 2","2","2016-01-21","113","Serum","Direct Bilirubin","μmol/L",4.30791462358563,"0","5.1"
"01-022","Visit 2","2","2016-01-21","113","Serum","IgE","mg/L",0.19960290871534,"0.1","0.4"
"01-022","Visit 2","2","2016-01-21","113","Serum","Magnesium","mmol/L",0.90181361353344,"0.62","0.99"
"01-022","Visit 2","2","2016-01-21","113","Blood","Platelet count","x 109/L",105.849100571981,"150","350"
"01-022","Visit 2","2","2016-01-21","113","Serum","Potassium","mmol/L",4.62034416666491,"3.5","5"
"01-022","Visit 2","2","2016-01-21","113","Blood","RBC count","x 1012 cells/L",3.62711230703238,"4.2","5.9"
"01-022","Visit 2","2","2016-01-21","113","Serum","Sodium","mmol/L",150.962929265842,"136","145"
"01-022","Visit 2","2","2016-01-21","113","Serum","Total Bilirubin","μmol/L",18.1957001786857,"5.1","20.5"
"01-022","Visit 2","2","2016-01-21","113","Blood","WBC count","x 109 cells/L",7.78613259983009,"4.5","11"
"01-022","Visit 3","3","2016-03-23","175","Serum","Albumin","g/L",31.9081193083819,"35","55"
"01-022","Visit 3","3","2016-03-23","175","Serum","Alkaline phosphatase (ALP)","μkat/L",1.06389681428687,"0.5","1.5"
"01-022","Visit 3","3","2016-03-23","175","Serum","Aminotransferase, alanine (ALT)","pkat/L",0.0383708313779023,"0","0.58"
"01-022","Visit 3","3","2016-03-23","175","Serum","Aminotransferase, aspartate (AST)","pkat/L",0.452917617454597,"0","0.58"
"01-022","Visit 3","3","2016-03-23","175","Serum","Calcium","mmol/L",2.60239733143281,"2.2","2.6"
"01-022","Visit 3","3","2016-03-23","175","Serum","Chloride","mmol/L",,"98","106"
"01-022","Visit 3","3","2016-03-23","175","Serum","Creatinine","μmol/L",53.8053534395966,"61.9","115"
"01-022","Visit 3","3","2016-03-23","175","Serum","Direct Bilirubin","μmol/L",1.94828304878412,"0","5.1"
"01-022","Visit 3","3","2016-03-23","175","Serum","IgE","mg/L",0.331202495007329,"0.1","0.4"
"01-022","Visit 3","3","2016-03-23","175","Serum","Magnesium","mmol/L",0.379099061398992,"0.62","0.99"
"01-022","Visit 3","3","2016-03-23","175","Blood","Platelet count","x 109/L",0,"150","350"
"01-022","Visit 3","3","2016-03-23","175","Serum","Potassium","mmol/L",3.33622350088539,"3.5","5"
"01-022","Visit 3","3","2016-03-23","175","Blood","RBC count","x 1012 cells/L",4.82577840158956,"4.2","5.9"
"01-022","Visit 3","3","2016-03-23","175","Serum","Sodium","mmol/L",136.335136278789,"136","145"
"01-022","Visit 3","3","2016-03-23","175","Serum","Total Bilirubin","μmol/L",13.5933996296493,"5.1","20.5"
"01-022","Visit 3","3","2016-03-23","175","Blood","WBC count","x 109 cells/L",13.0772663162864,"4.5","11"
"01-022","Visit 4","4","2016-05-05","218","Serum","Albumin","g/L",29.2820529049613,"35","55"
"01-022","Visit 4","4","2016-05-05","218","Serum","Alkaline phosphatase (ALP)","μkat/L",,"0.5","1.5"
"01-022","Visit 4","4","2016-05-05","218","Serum","Aminotransferase, alanine (ALT)","pkat/L",,"0","0.58"
"01-022","Visit 4","4","2016-05-05","218","Serum","Aminotransferase, aspartate (AST)","pkat/L",0.151519733502232,"0","0.58"
"01-022","Visit 4","4","2016-05-05","218","Serum","Calcium","mmol/L",2.49473508118884,"2.2","2.6"
"01-022","Visit 4","4","2016-05-05","218","Serum","Chloride","mmol/L",101.778270428613,"98","106"
"01-022","Visit 4","4","2016-05-05","218","Serum","Creatinine","μmol/L",83.8694571442666,"61.9","115"
"01-022","Visit 4","4","2016-05-05","218","Serum","Direct Bilirubin","μmol/L",4.54421873978759,"0","5.1"
"01-022","Visit 4","4","2016-05-05","218","Serum","IgE","mg/L",,"0.1","0.4"
"01-022","Visit 4","4","2016-05-05","218","Serum","Magnesium","mmol/L",0.903339657326743,"0.62","0.99"
"01-022","Visit 4","4","2016-05-05","218","Blood","Platelet count","x 109/L",,"150","350"
"01-022","Visit 4","4","2016-05-05","218","Serum","Potassium","mmol/L",4.66993837110721,"3.5","5"
"01-022","Visit 4","4","2016-05-05","218","Blood","RBC count","x 1012 cells/L",,"4.2","5.9"
"01-022","Visit 4","4","2016-05-05","218","Serum","Sodium","mmol/L",,"136","145"
"01-022","Visit 4","4","2016-05-05","218","Serum","Total Bilirubin","μmol/L",19.1624062175994,"5.1","20.5"
"01-022","Visit 4","4","2016-05-05","218","Blood","WBC count","x 109 cells/L",,"4.5","11"
"01-022","Visit 5","5","2016-07-02","276","Serum","Albumin","g/L",38.5437233399102,"35","55"
"01-022","Visit 5","5","2016-07-02","276","Serum","Alkaline phosphatase (ALP)","μkat/L",1.23896418734159,"0.5","1.5"
"01-022","Visit 5","5","2016-07-02","276","Serum","Aminotransferase, alanine (ALT)","pkat/L",0.156308329046358,"0","0.58"
"01-022","Visit 5","5","2016-07-02","276","Serum","Aminotransferase, aspartate (AST)","pkat/L",0.472501595829386,"0","0.58"
"01-022","Visit 5","5","2016-07-02","276","Serum","Calcium","mmol/L",2.21519978980413,"2.2","2.6"
"01-022","Visit 5","5","2016-07-02","276","Serum","Chloride","mmol/L",,"98","106"
"01-022","Visit 5","5","2016-07-02","276","Serum","Creatinine","μmol/L",96.2949933175927,"61.9","115"
"01-022","Visit 5","5","2016-07-02","276","Serum","Direct Bilirubin","μmol/L",2.59508906583357,"0","5.1"
"01-022","Visit 5","5","2016-07-02","276","Serum","IgE","mg/L",0.549068357290987,"0.1","0.4"
"01-022","Visit 5","5","2016-07-02","276","Serum","Magnesium","mmol/L",0.389545401697899,"0.62","0.99"
"01-022","Visit 5","5","2016-07-02","276","Blood","Platelet count","x 109/L",355.005139971459,"150","350"
"01-022","Visit 5","5","2016-07-02","276","Serum","Potassium","mmol/L",6.26548744942016,"3.5","5"
"01-022","Visit 5","5","2016-07-02","276","Blood","RBC count","x 1012 cells/L",4.25623744022001,"4.2","5.9"
"01-022","Visit 5","5","2016-07-02","276","Serum","Sodium","mmol/L",143.037407900905,"136","145"
"01-022","Visit 5","5","2016-07-02","276","Serum","Total Bilirubin","μmol/L",20.8555846142711,"5.1","20.5"
"01-022","Visit 5","5","2016-07-02","276","Blood","WBC count","x 109 cells/L",5.81290909168972,"4.5","11"
"01-022","Visit 6","6","2016-09-06","342","Serum","Albumin","g/L",51.3543191553523,"35","55"
"01-022","Visit 6","6","2016-09-06","342","Serum","Alkaline phosphatase (ALP)","μkat/L",0.887609696188432,"0.5","1.5"
"01-022","Visit 6","6","2016-09-06","342","Serum","Aminotransferase, alanine (ALT)","pkat/L",0,"0","0.58"
"01-022","Visit 6","6","2016-09-06","342","Serum","Aminotransferase, aspartate (AST)","pkat/L",0.257968270338931,"0","0.58"
"01-022","Visit 6","6","2016-09-06","342","Serum","Calcium","mmol/L",,"2.2","2.6"
"01-022","Visit 6","6","2016-09-06","342","Serum","Chloride","mmol/L",100.95927093353,"98","106"
"01-022","Visit 6","6","2016-09-06","342","Serum","Creatinine","μmol/L",66.8971770806634,"61.9","115"
"01-022","Visit 6","6","2016-09-06","342","Serum","Direct Bilirubin","μmol/L",0,"0","5.1"
"01-022","Visit 6","6","2016-09-06","342","Serum","IgE","mg/L",0.1873725059879,"0.1","0.4"
"01-022","Visit 6","6","2016-09-06","342","Serum","Magnesium","mmol/L",0.89873474393911,"0.62","0.99"
"01-022","Visit 6","6","2016-09-06","342","Blood","Platelet count","x 109/L",260.542765943318,"150","350"
"01-022","Visit 6","6","2016-09-06","342","Serum","Potassium","mmol/L",3.95854076266943,"3.5","5"
"01-022","Visit 6","6","2016-09-06","342","Blood","RBC count","x 1012 cells/L",4.92324004941747,"4.2","5.9"
"01-022","Visit 6","6","2016-09-06","342","Serum","Sodium","mmol/L",139.756593856195,"136","145"
"01-022","Visit 6","6","2016-09-06","342","Serum","Total Bilirubin","μmol/L",6.32753084784473,"5.1","20.5"
"01-022","Visit 6","6","2016-09-06","342","Blood","WBC count","x 109 cells/L",10.4684767177999,"4.5","11"
"01-022","End of Study","7","2016-10-07","373","Serum","Albumin","g/L",46.5775021106674,"35","55"
"01-022","End of Study","7","2016-10-07","373","Serum","Alkaline phosphatase (ALP)","μkat/L",1.15931985626559,"0.5","1.5"
"01-022","End of Study","7","2016-10-07","373","Serum","Aminotransferase, alanine (ALT)","pkat/L",0.166306167350484,"0","0.58"
"01-022","End of Study","7","2016-10-07","373","Serum","Aminotransferase, aspartate (AST)","pkat/L",0.379785216444159,"0","0.58"
"01-022","End of Study","7","2016-10-07","373","Serum","Calcium","mmol/L",2.49072068929836,"2.2","2.6"
"01-022","End of Study","7","2016-10-07","373","Serum","Chloride","mmol/L",,"98","106"
"01-022","End of Study","7","2016-10-07","373","Serum","Creatinine","μmol/L",155.8020779689,"61.9","115"
"01-022","End of Study","7","2016-10-07","373","Serum","Direct Bilirubin","μmol/L",0,"0","5.1"
"01-022","End of Study","7","2016-10-07","373","Serum","IgE","mg/L",0.50673377000224,"0.1","0.4"
"01-022","End of Study","7","2016-10-07","373","Serum","Magnesium","mmol/L",0.982674206678304,"0.62","0.99"
"01-022","End of Study","7","2016-10-07","373","Blood","Platelet count","x 109/L",190.411209998851,"150","350"
"01-022","End of Study","7","2016-10-07","373","Serum","Potassium","mmol/L",4.00389083996314,"3.5","5"
"01-022","End of Study","7","2016-10-07","373","Blood","RBC count","x 1012 cells/L",4.5715070731728,"4.2","5.9"
"01-022","End of Study","7","2016-10-07","373","Serum","Sodium","mmol/L",141.87583665452,"136","145"
"01-022","End of Study","7","2016-10-07","373","Serum","Total Bilirubin","μmol/L",14.7767083863878,"5.1","20.5"
"01-022","End of Study","7","2016-10-07","373","Blood","WBC count","x 109 cells/L",11.8815466267606,"4.5","11"
"01-023","Screening","0","2015-03-29","1","Serum","Albumin","g/L",51.2492844769787,"35","55"
"01-023","Screening","0","2015-03-29","1","Serum","Alkaline phosphatase (ALP)","μkat/L",0.461690821631494,"0.5","1.5"
"01-023","Screening","0","2015-03-29","1","Serum","Aminotransferase, alanine (ALT)","pkat/L",0.43469676970518,"0","0.58"
"01-023","Screening","0","2015-03-29","1","Serum","Aminotransferase, aspartate (AST)","pkat/L",0.204319316246679,"0","0.58"
"01-023","Screening","0","2015-03-29","1","Serum","Calcium","mmol/L",2.80004573902435,"2.2","2.6"
"01-023","Screening","0","2015-03-29","1","Serum","Chloride","mmol/L",101.131822725397,"98","106"
"01-023","Screening","0","2015-03-29","1","Serum","Creatinine","μmol/L",82.2588239246951,"61.9","115"
"01-023","Screening","0","2015-03-29","1","Serum","Direct Bilirubin","μmol/L",3.70395924538892,"0","5.1"
"01-023","Screening","0","2015-03-29","1","Serum","IgE","mg/L",0.0623041829092323,"0.1","0.4"
"01-023","Screening","0","2015-03-29","1","Serum","Magnesium","mmol/L",0.82856767340627,"0.62","0.99"
"01-023","Screening","0","2015-03-29","1","Blood","Platelet count","x 109/L",149.269001825287,"150","350"
"01-023","Screening","0","2015-03-29","1","Serum","Potassium","mmol/L",3.34217380596413,"3.5","5"
"01-023","Screening","0","2015-03-29","1","Blood","RBC count","x 1012 cells/L",5.37207251431116,"4.2","5.9"
"01-023","Screening","0","2015-03-29","1","Serum","Sodium","mmol/L",143.038433613902,"136","145"
"01-023","Screening","0","2015-03-29","1","Serum","Total Bilirubin","μmol/L",13.5778047282239,"5.1","20.5"
"01-023","Screening","0","2015-03-29","1","Blood","WBC count","x 109 cells/L",5.8663651632972,"4.5","11"
"01-023","Visit 1","1","2015-05-22","55","Serum","Albumin","g/L",41.3254235446282,"35","55"
"01-023","Visit 1","1","2015-05-22","55","Serum","Alkaline phosphatase (ALP)","μkat/L",1.61628363698026,"0.5","1.5"
"01-023","Visit 1","1","2015-05-22","55","Serum","Aminotransferase, alanine (ALT)","pkat/L",0.448393674596742,"0","0.58"
"01-023","Visit 1","1","2015-05-22","55","Serum","Aminotransferase, aspartate (AST)","pkat/L",0.139692202573402,"0","0.58"
"01-023","Visit 1","1","2015-05-22","55","Serum","Calcium","mmol/L",,"2.2","2.6"
"01-023","Visit 1","1","2015-05-22","55","Serum","Chloride","mmol/L",105.416577744491,"98","106"
"01-023","Visit 1","1","2015-05-22","55","Serum","Creatinine","μmol/L",93.6244941150638,"61.9","115"
"01-023","Visit 1","1","2015-05-22","55","Serum","Direct Bilirubin","μmol/L",3.445346570351,"0","5.1"
"01-023","Visit 1","1","2015-05-22","55","Serum","IgE","mg/L",0.297027118406227,"0.1","0.4"
"01-023","Visit 1","1","2015-05-22","55","Serum","Magnesium","mmol/L",1.17050880553079,"0.62","0.99"
"01-023","Visit 1","1","2015-05-22","55","Blood","Platelet count","x 109/L",356.811884036557,"150","350"
"01-023","Visit 1","1","2015-05-22","55","Serum","Potassium","mmol/L",3.27479438457536,"3.5","5"
"01-023","Visit 1","1","2015-05-22","55","Blood","RBC count","x 1012 cells/L",5.81702349060167,"4.2","5.9"
"01-023","Visit 1","1","2015-05-22","55","Serum","Sodium","mmol/L",139.34870057182,"136","145"
"01-023","Visit 1","1","2015-05-22","55","Serum","Total Bilirubin","μmol/L",19.4924050711753,"5.1","20.5"
"01-023","Visit 1","1","2015-05-22","55","Blood","WBC count","x 109 cells/L",8.33702931241377,"4.5","11"
"01-023","Visit 2","2","2015-07-14","108","Serum","Albumin","g/L",38.706157572573,"35","55"
"01-023","Visit 2","2","2015-07-14","108","Serum","Alkaline phosphatase (ALP)","μkat/L",1.2125200181326,"0.5","1.5"
"01-023","Visit 2","2","2015-07-14","108","Serum","Aminotransferase, alanine (ALT)","pkat/L",0.711096632587242,"0","0.58"
"01-023","Visit 2","2","2015-07-14","108","Serum","Aminotransferase, aspartate (AST)","pkat/L",,"0","0.58"
"01-023","Visit 2","2","2015-07-14","108","Serum","Calcium","mmol/L",2.48615511484954,"2.2","2.6"
"01-023","Visit 2","2","2015-07-14","108","Serum","Chloride","mmol/L",104.345521272466,"98","106"
"01-023","Visit 2","2","2015-07-14","108","Serum","Creatinine","μmol/L",,"61.9","115"
"01-023","Visit 2","2","2015-07-14","108","Serum","Direct Bilirubin","μmol/L",9.2401733616662,"0","5.1"
"01-023","Visit 2","2","2015-07-14","108","Serum","IgE","mg/L",0.150003147067264,"0.1","0.4"
"01-023","Visit 2","2","2015-07-14","108","Serum","Magnesium","mmol/L",0.90926349228523,"0.62","0.99"
"01-023","Visit 2","2","2015-07-14","108","Blood","Platelet count","x 109/L",293.564406689882,"150","350"
"01-023","Visit 2","2","2015-07-14","108","Serum","Potassium","mmol/L",5.94762798407874,"3.5","5"
"01-023","Visit 2","2","2015-07-14","108","Blood","RBC count","x 1012 cells/L",5.48159494000893,"4.2","5.9"
"01-023","Visit 2","2","2015-07-14","108","Serum","Sodium","mmol/L",130.804676549237,"136","145"
"01-023","Visit 2","2","2015-07-14","108","Serum","Total Bilirubin","μmol/L",16.3691613563297,"5.1","20.5"
"01-023","Visit 2","2","2015-07-14","108","Blood","WBC count","x 109 cells/L",8.47341804478089,"4.5","11"
"01-024","Screening","0","2015-04-23","1","Serum","Albumin","g/L",32.631713829619,"35","55"
"01-024","Screening","0","2015-04-23","1","Serum","Alkaline phosphatase (ALP)","μkat/L",2.01584486079005,"0.5","1.5"
"01-024","Screening","0","2015-04-23","1","Serum","Aminotransferase, alanine (ALT)","pkat/L",0.0443584143617758,"0","0.58"
"01-024","Screening","0","2015-04-23","1","Serum","Aminotransferase, aspartate (AST)","pkat/L",0.339726380434973,"0","0.58"
"01-024","Screening","0","2015-04-23","1","Serum","Calcium","mmol/L",2.30868154463111,"2.2","2.6"
"01-024","Screening","0","2015-04-23","1","Serum","Chloride","mmol/L",104.463573146266,"98","106"
"01-024","Screening","0","2015-04-23","1","Serum","Creatinine","μmol/L",122.380707359463,"61.9","115"
"01-024","Screening","0","2015-04-23","1","Serum","Direct Bilirubin","μmol/L",0,"0","5.1"
"01-024","Screening","0","2015-04-23","1","Serum","IgE","mg/L",0.417111289913259,"0.1","0.4"
"01-024","Screening","0","2015-04-23","1","Serum","Magnesium","mmol/L",0.882764979574515,"0.62","0.99"
"01-024","Screening","0","2015-04-23","1","Blood","Platelet count","x 109/L",199.519746117748,"150","350"
"01-024","Screening","0","2015-04-23","1","Serum","Potassium","mmol/L",3.93538903708392,"3.5","5"
"01-024","Screening","0","2015-04-23","1","Blood","RBC count","x 1012 cells/L",3.9910910523331,"4.2","5.9"
"01-024","Screening","0","2015-04-23","1","Serum","Sodium","mmol/L",143.488697675654,"136","145"
"01-024","Screening","0","2015-04-23","1","Serum","Total Bilirubin","μmol/L",21.6338690754804,"5.1","20.5"
"01-024","Screening","0","2015-04-23","1","Blood","WBC count","x 109 cells/L",9.2460178152761,"4.5","11"
"01-024","Visit 1","1","2015-06-10","49","Serum","Albumin","g/L",41.2160976445827,"35","55"
"01-024","Visit 1","1","2015-06-10","49","Serum","Alkaline phosphatase (ALP)","μkat/L",1.4842195990109,"0.5","1.5"
"01-024","Visit 1","1","2015-06-10","49","Serum","Aminotransferase, alanine (ALT)","pkat/L",0,"0","0.58"
"01-024","Visit 1","1","2015-06-10","49","Serum","Aminotransferase, aspartate (AST)","pkat/L",0.086002597987517,"0","0.58"
"01-024","Visit 1","1","2015-06-10","49","Serum","Calcium","mmol/L",,"2.2","2.6"
"01-024","Visit 1","1","2015-06-10","49","Serum","Chloride","mmol/L",99.2847439180112,"98","106"
"01-024","Visit 1","1","2015-06-10","49","Serum","Creatinine","μmol/L",66.6902249318922,"61.9","115"
"01-024","Visit 1","1","2015-06-10","49","Serum","Direct Bilirubin","μmol/L",2.86218777639613,"0","5.1"
"01-024","Visit 1","1","2015-06-10","49","Serum","IgE","mg/L",0.165386713917034,"0.1","0.4"
"01-024","Visit 1","1","2015-06-10","49","Serum","Magnesium","mmol/L",1.03740504631889,"0.62","0.99"
"01-024","Visit 1","1","2015-06-10","49","Blood","Platelet count","x 109/L",269.591930019408,"150","350"
"01-024","Visit 1","1","2015-06-10","49","Serum","Potassium","mmol/L",4.47841011264928,"3.5","5"
"01-024","Visit 1","1","2015-06-10","49","Blood","RBC count","x 1012 cells/L",5.2760405744699,"4.2","5.9"
"01-024","Visit 1","1","2015-06-10","49","Serum","Sodium","mmol/L",144.483464079632,"136","145"
"01-024","Visit 1","1","2015-06-10","49","Serum","Total Bilirubin","μmol/L",7.16847473866561,"5.1","20.5"
"01-024","Visit 1","1","2015-06-10","49","Blood","WBC count","x 109 cells/L",10.3066501831789,"4.5","11"
"01-024","Visit 2","2","2015-08-09","109","Serum","Albumin","g/L",48.4120984189148,"35","55"
"01-024","Visit 2","2","2015-08-09","109","Serum","Alkaline phosphatase (ALP)","μkat/L",0.449581056121727,"0.5","1.5"
"01-024","Visit 2","2","2015-08-09","109","Serum","Aminotransferase, alanine (ALT)","pkat/L",0.832865337438768,"0","0.58"
"01-024","Visit 2","2","2015-08-09","109","Serum","Aminotransferase, aspartate (AST)","pkat/L",,"0","0.58"
"01-024","Visit 2","2","2015-08-09","109","Serum","Calcium","mmol/L",2.32801871698536,"2.2","2.6"
"01-024","Visit 2","2","2015-08-09","109","Serum","Chloride","mmol/L",99.98405685475,"98","106"
"01-024","Visit 2","2","2015-08-09","109","Serum","Creatinine","μmol/L",105.841093979139,"61.9","115"
"01-024","Visit 2","2","2015-08-09","109","Serum","Direct Bilirubin","μmol/L",3.45406348208741,"0","5.1"
"01-024","Visit 2","2","2015-08-09","109","Serum","IgE","mg/L",0.196677511175779,"0.1","0.4"
"01-024","Visit 2","2","2015-08-09","109","Serum","Magnesium","mmol/L",0.711609818651324,"0.62","0.99"
"01-024","Visit 2","2","2015-08-09","109","Blood","Platelet count","x 109/L",145.131799789648,"150","350"
"01-024","Visit 2","2","2015-08-09","109","Serum","Potassium","mmol/L",6.41357971814285,"3.5","5"
"01-024","Visit 2","2","2015-08-09","109","Blood","RBC count","x 1012 cells/L",3.29783059467057,"4.2","5.9"
"01-024","Visit 2","2","2015-08-09","109","Serum","Sodium","mmol/L",140.801999724584,"136","145"
"01-024","Visit 2","2","2015-08-09","109","Serum","Total Bilirubin","μmol/L",15.871940390967,"5.1","20.5"
"01-024","Visit 2","2","2015-08-09","109","Blood","WBC count","x 109 cells/L",5.73310590900666,"4.5","11"
"01-025","Screening","0","2015-06-22","1","Serum","Albumin","g/L",40.6658296096551,"35","55"
"01-025","Screening","0","2015-06-22","1","Serum","Alkaline phosphatase (ALP)","μkat/L",0.45660681855209,"0.5","1.5"
"01-025","Screening","0","2015-06-22","1","Serum","Aminotransferase, alanine (ALT)","pkat/L",0.568743674554334,"0","0.58"
"01-025","Screening","0","2015-06-22","1","Serum","Aminotransferase, aspartate (AST)","pkat/L",0,"0","0.58"
"01-025","Screening","0","2015-06-22","1","Serum","Calcium","mmol/L",2.23216156600483,"2.2","2.6"
"01-025","Screening","0","2015-06-22","1","Serum","Chloride","mmol/L",98.4092672539712,"98","106"
"01-025","Screening","0","2015-06-22","1","Serum","Creatinine","μmol/L",104.071316327917,"61.9","115"
"01-025","Screening","0","2015-06-22","1","Serum","Direct Bilirubin","μmol/L",0,"0","5.1"
"01-025","Screening","0","2015-06-22","1","Serum","IgE","mg/L",0.179667996418376,"0.1","0.4"
"01-025","Screening","0","2015-06-22","1","Serum","Magnesium","mmol/L",0.76199434522219,"0.62","0.99"
"01-025","Screening","0","2015-06-22","1","Blood","Platelet count","x 109/L",154.932105017951,"150","350"
"01-025","Screening","0","2015-06-22","1","Serum","Potassium","mmol/L",3.63839857721336,"3.5","5"
"01-025","Screening","0","2015-06-22","1","Blood","RBC count","x 1012 cells/L",3.31114350875008,"4.2","5.9"
"01-025","Screening","0","2015-06-22","1","Serum","Sodium","mmol/L",,"136","145"
"01-025","Screening","0","2015-06-22","1","Serum","Total Bilirubin","μmol/L",18.1648829183509,"5.1","20.5"
"01-025","Screening","0","2015-06-22","1","Blood","WBC count","x 109 cells/L",7.08776801018945,"4.5","11"
"01-025","Visit 1","1","2015-08-15","55","Serum","Albumin","g/L",36.0853432682371,"35","55"
"01-025","Visit 1","1","2015-08-15","55","Serum","Alkaline phosphatase (ALP)","μkat/L",1.08422997012434,"0.5","1.5"
"01-025","Visit 1","1","2015-08-15","55","Serum","Aminotransferase, alanine (ALT)","pkat/L",0.376254186270929,"0","0.58"
"01-025","Visit 1","1","2015-08-15","55","Serum","Aminotransferase, aspartate (AST)","pkat/L",0.513201285077685,"0","0.58"
"01-025","Visit 1","1","2015-08-15","55","Serum","Calcium","mmol/L",,"2.2","2.6"
"01-025","Visit 1","1","2015-08-15","55","Serum","Chloride","mmol/L",99.4942921124847,"98","106"
"01-025","Visit 1","1","2015-08-15","55","Serum","Creatinine","μmol/L",80.1224179551446,"61.9","115"
"01-025","Visit 1","1","2015-08-15","55","Serum","Direct Bilirubin","μmol/L",0,"0","5.1"
"01-025","Visit 1","1","2015-08-15","55","Serum","IgE","mg/L",0.0223341680517957,"0.1","0.4"
"01-025","Visit 1","1","2015-08-15","55","Serum","Magnesium","mmol/L",0.388636614312505,"0.62","0.99"
"01-025","Visit 1","1","2015-08-15","55","Blood","Platelet count","x 109/L",299.266591208714,"150","350"
"01-025","Visit 1","1","2015-08-15","55","Serum","Potassium","mmol/L",4.05807642018401,"3.5","5"
"01-025","Visit 1","1","2015-08-15","55","Blood","RBC count","x 1012 cells/L",4.42483069955475,"4.2","5.9"
"01-025","Visit 1","1","2015-08-15","55","Serum","Sodium","mmol/L",134.959291772303,"136","145"
"01-025","Visit 1","1","2015-08-15","55","Serum","Total Bilirubin","μmol/L",12.0615539843948,"5.1","20.5"
"01-025","Visit 1","1","2015-08-15","55","Blood","WBC count","x 109 cells/L",3.26611765775871,"4.5","11"
"01-026","Screening","0","2015-02-19","1","Serum","Albumin","g/L",37.7088646831776,"35","55"
"01-026","Screening","0","2015-02-19","1","Serum","Alkaline phosphatase (ALP)","μkat/L",1.09318046048421,"0.5","1.5"
"01-026","Screening","0","2015-02-19","1","Serum","Aminotransferase, alanine (ALT)","pkat/L",0,"0","0.58"
"01-026","Screening","0","2015-02-19","1","Serum","Aminotransferase, aspartate (AST)","pkat/L",0,"0","0.58"
"01-026","Screening","0","2015-02-19","1","Serum","Calcium","mmol/L",2.44631803627623,"2.2","2.6"
"01-026","Screening","0","2015-02-19","1","Serum","Chloride","mmol/L",98.2548433829179,"98","106"
"01-026","Screening","0","2015-02-19","1","Serum","Creatinine","μmol/L",92.3655766419012,"61.9","115"
"01-026","Screening","0","2015-02-19","1","Serum","Direct Bilirubin","μmol/L",5.34143964470666,"0","5.1"
"01-026","Screening","0","2015-02-19","1","Serum","IgE","mg/L",0.368246902244521,"0.1","0.4"
"01-026","Screening","0","2015-02-19","1","Serum","Magnesium","mmol/L",1.11136076320552,"0.62","0.99"
"01-026","Screening","0","2015-02-19","1","Blood","Platelet count","x 109/L",142.997382015819,"150","350"
"01-026","Screening","0","2015-02-19","1","Serum","Potassium","mmol/L",3.7430019837222,"3.5","5"
"01-026","Screening","0","2015-02-19","1","Blood","RBC count","x 1012 cells/L",5.39616207887841,"4.2","5.9"
"01-026","Screening","0","2015-02-19","1","Serum","Sodium","mmol/L",138.50723259909,"136","145"
"01-026","Screening","0","2015-02-19","1","Serum","Total Bilirubin","μmol/L",20.0994588045153,"5.1","20.5"
"01-026","Screening","0","2015-02-19","1","Blood","WBC count","x 109 cells/L",7.9111943066213,"4.5","11"
"01-026","Visit 1","1","2015-04-09","50","Serum","Albumin","g/L",53.508340099935,"35","55"
"01-026","Visit 1","1","2015-04-09","50","Serum","Alkaline phosphatase (ALP)","μkat/L",1.27851693115755,"0.5","1.5"
"01-026","Visit 1","1","2015-04-09","50","Serum","Aminotransferase, alanine (ALT)","pkat/L",0,"0","0.58"
"01-026","Visit 1","1","2015-04-09","50","Serum","Aminotransferase, aspartate (AST)","pkat/L",0.55800857798992,"0","0.58"
"01-026","Visit 1","1","2015-04-09","50","Serum","Calcium","mmol/L",,"2.2","2.6"
"01-026","Visit 1","1","2015-04-09","50","Serum","Chloride","mmol/L",100.551675723357,"98","106"
"01-026","Visit 1","1","2015-04-09","50","Serum","Creatinine","μmol/L",50.0836783041031,"61.9","115"
"01-026","Visit 1","1","2015-04-09","50","Serum","Direct Bilirubin","μmol/L",3.40394297466829,"0","5.1"
"01-026","Visit 1","1","2015-04-09","50","Serum","IgE","mg/L",0.325503900037591,"0.1","0.4"
"01-026","Visit 1","1","2015-04-09","50","Serum","Magnesium","mmol/L",0.881433818828641,"0.62","0.99"
"01-026","Visit 1","1","2015-04-09","50","Blood","Platelet count","x 109/L",334.566716134667,"150","350"
"01-026","Visit 1","1","2015-04-09","50","Serum","Potassium","mmol/L",4.10894754594577,"3.5","5"
"01-026","Visit 1","1","2015-04-09","50","Blood","RBC count","x 1012 cells/L",5.9193404765549,"4.2","5.9"
"01-026","Visit 1","1","2015-04-09","50","Serum","Sodium","mmol/L",133.473757218411,"136","145"
"01-026","Visit 1","1","2015-04-09","50","Serum","Total Bilirubin","μmol/L",19.4234634388753,"5.1","20.5"
"01-026","Visit 1","1","2015-04-09","50","Blood","WBC count","x 109 cells/L",11.5163757917716,"4.5","11"
"01-026","Visit 2","2","2015-06-10","112","Serum","Albumin","g/L",54.7488325608572,"35","55"
"01-026","Visit 2","2","2015-06-10","112","Serum","Alkaline phosphatase (ALP)","μkat/L",1.39217409521479,"0.5","1.5"
"01-026","Visit 2","2","2015-06-10","112","Serum","Aminotransferase, alanine (ALT)","pkat/L",0,"0","0.58"
"01-026","Visit 2","2","2015-06-10","112","Serum","Aminotransferase, aspartate (AST)","pkat/L",,"0","0.58"
"01-026","Visit 2","2","2015-06-10","112","Serum","Calcium","mmol/L",,"2.2","2.6"
"01-026","Visit 2","2","2015-06-10","112","Serum","Chloride","mmol/L",106.994405270327,"98","106"
"01-026","Visit 2","2","2015-06-10","112","Serum","Creatinine","μmol/L",98.4375923380512,"61.9","115"
"01-026","Visit 2","2","2015-06-10","112","Serum","Direct Bilirubin","μmol/L",4.60488225701572,"0","5.1"
"01-026","Visit 2","2","2015-06-10","112","Serum","IgE","mg/L",0.382048056278394,"0.1","0.4"
"01-026","Visit 2","2","2015-06-10","112","Serum","Magnesium","mmol/L",0.805825949302998,"0.62","0.99"
"01-026","Visit 2","2","2015-06-10","112","Blood","Platelet count","x 109/L",284.680623873726,"150","350"
"01-026","Visit 2","2","2015-06-10","112","Serum","Potassium","mmol/L",5.3540763718441,"3.5","5"
"01-026","Visit 2","2","2015-06-10","112","Blood","RBC count","x 1012 cells/L",5.35788076656152,"4.2","5.9"
"01-026","Visit 2","2","2015-06-10","112","Serum","Sodium","mmol/L",137.61843980963,"136","145"
"01-026","Visit 2","2","2015-06-10","112","Serum","Total Bilirubin","μmol/L",14.1730623345677,"5.1","20.5"
"01-026","Visit 2","2","2015-06-10","112","Blood","WBC count","x 109 cells/L",9.22711846862476,"4.5","11"
"01-026","Visit 4","4","2015-09-27","221","Serum","Albumin","g/L",48.210815045983,"35","55"
"01-026","Visit 4","4","2015-09-27","221","Serum","Alkaline phosphatase (ALP)","μkat/L",,"0.5","1.5"
"01-026","Visit 4","4","2015-09-27","221","Serum","Aminotransferase, alanine (ALT)","pkat/L",,"0","0.58"
"01-026","Visit 4","4","2015-09-27","221","Serum","Aminotransferase, aspartate (AST)","pkat/L",,"0","0.58"
"01-026","Visit 4","4","2015-09-27","221","Serum","Calcium","mmol/L",2.54212672888793,"2.2","2.6"
"01-026","Visit 4","4","2015-09-27","221","Serum","Chloride","mmol/L",106.85495252196,"98","106"
"01-026","Visit 4","4","2015-09-27","221","Serum","Creatinine","μmol/L",160.983750847511,"61.9","115"
"01-026","Visit 4","4","2015-09-27","221","Serum","Direct Bilirubin","μmol/L",2.56863756598421,"0","5.1"
"01-026","Visit 4","4","2015-09-27","221","Serum","IgE","mg/L",0.16806568075975,"0.1","0.4"
"01-026","Visit 4","4","2015-09-27","221","Serum","Magnesium","mmol/L",0.495864172533534,"0.62","0.99"
"01-026","Visit 4","4","2015-09-27","221","Blood","Platelet count","x 109/L",,"150","350"
"01-026","Visit 4","4","2015-09-27","221","Serum","Potassium","mmol/L",4.69490280119648,"3.5","5"
"01-026","Visit 4","4","2015-09-27","221","Blood","RBC count","x 1012 cells/L",,"4.2","5.9"
"01-026","Visit 4","4","2015-09-27","221","Serum","Sodium","mmol/L",,"136","145"
"01-026","Visit 4","4","2015-09-27","221","Serum","Total Bilirubin","μmol/L",13.8299242374563,"5.1","20.5"
"01-026","Visit 4","4","2015-09-27","221","Blood","WBC count","x 109 cells/L",,"4.5","11"
"01-026","Visit 5","5","2015-11-20","275","Serum","Albumin","g/L",50.9571283588824,"35","55"
"01-026","Visit 5","5","2015-11-20","275","Serum","Alkaline phosphatase (ALP)","μkat/L",0.565226745868814,"0.5","1.5"
"01-026","Visit 5","5","2015-11-20","275","Serum","Aminotransferase, alanine (ALT)","pkat/L",0.235670843791173,"0","0.58"
"01-026","Visit 5","5","2015-11-20","275","Serum","Aminotransferase, aspartate (AST)","pkat/L",0.690554280139026,"0","0.58"
"01-026","Visit 5","5","2015-11-20","275","Serum","Calcium","mmol/L",2.58873181225916,"2.2","2.6"
"01-026","Visit 5","5","2015-11-20","275","Serum","Chloride","mmol/L",,"98","106"
"01-026","Visit 5","5","2015-11-20","275","Serum","Creatinine","μmol/L",50.0735147951013,"61.9","115"
"01-026","Visit 5","5","2015-11-20","275","Serum","Direct Bilirubin","μmol/L",0,"0","5.1"
"01-026","Visit 5","5","2015-11-20","275","Serum","IgE","mg/L",0.168876275592487,"0.1","0.4"
"01-026","Visit 5","5","2015-11-20","275","Serum","Magnesium","mmol/L",0.624421030191259,"0.62","0.99"
"01-026","Visit 5","5","2015-11-20","275","Blood","Platelet count","x 109/L",92.002993733882,"150","350"
"01-026","Visit 5","5","2015-11-20","275","Serum","Potassium","mmol/L",3.49451582695725,"3.5","5"
"01-026","Visit 5","5","2015-11-20","275","Blood","RBC count","x 1012 cells/L",5.23988448350527,"4.2","5.9"
"01-026","Visit 5","5","2015-11-20","275","Serum","Sodium","mmol/L",144.222311521401,"136","145"
"01-026","Visit 5","5","2015-11-20","275","Serum","Total Bilirubin","μmol/L",18.1395806923214,"5.1","20.5"
"01-026","Visit 5","5","2015-11-20","275","Blood","WBC count","x 109 cells/L",9.24167401339559,"4.5","11"
"01-026","Visit 6","6","2016-01-14","330","Serum","Albumin","g/L",37.9477886225666,"35","55"
"01-026","Visit 6","6","2016-01-14","330","Serum","Alkaline phosphatase (ALP)","μkat/L",0.407567662910237,"0.5","1.5"
"01-026","Visit 6","6","2016-01-14","330","Serum","Aminotransferase, alanine (ALT)","pkat/L",0.591418862238931,"0","0.58"
"01-026","Visit 6","6","2016-01-14","330","Serum","Aminotransferase, aspartate (AST)","pkat/L",0.0543951050215044,"0","0.58"
"01-026","Visit 6","6","2016-01-14","330","Serum","Calcium","mmol/L",,"2.2","2.6"
"01-026","Visit 6","6","2016-01-14","330","Serum","Chloride","mmol/L",100.042737527631,"98","106"
"01-026","Visit 6","6","2016-01-14","330","Serum","Creatinine","μmol/L",62.1049071491595,"61.9","115"
"01-026","Visit 6","6","2016-01-14","330","Serum","Direct Bilirubin","μmol/L",0.0623471543792227,"0","5.1"
"01-026","Visit 6","6","2016-01-14","330","Serum","IgE","mg/L",0.0378441573795972,"0.1","0.4"
"01-026","Visit 6","6","2016-01-14","330","Serum","Magnesium","mmol/L",0.994018893158595,"0.62","0.99"
"01-026","Visit 6","6","2016-01-14","330","Blood","Platelet count","x 109/L",437.527892869669,"150","350"
"01-026","Visit 6","6","2016-01-14","330","Serum","Potassium","mmol/L",4.2438125543399,"3.5","5"
"01-026","Visit 6","6","2016-01-14","330","Blood","RBC count","x 1012 cells/L",3.91351626664175,"4.2","5.9"
"01-026","Visit 6","6","2016-01-14","330","Serum","Sodium","mmol/L",135.850433432113,"136","145"
"01-026","Visit 6","6","2016-01-14","330","Serum","Total Bilirubin","μmol/L",22.2382296309899,"5.1","20.5"
"01-026","Visit 6","6","2016-01-14","330","Blood","WBC count","x 109 cells/L",5.39484837648262,"4.5","11"
"01-026","End of Study","7","2016-02-25","372","Serum","Albumin","g/L",50.1528397706711,"35","55"
"01-026","End of Study","7","2016-02-25","372","Serum","Alkaline phosphatase (ALP)","μkat/L",0.95092809288658,"0.5","1.5"
"01-026","End of Study","7","2016-02-25","372","Serum","Aminotransferase, alanine (ALT)","pkat/L",0.110746657652598,"0","0.58"
"01-026","End of Study","7","2016-02-25","372","Serum","Aminotransferase, aspartate (AST)","pkat/L",0.817995448327127,"0","0.58"
"01-026","End of Study","7","2016-02-25","372","Serum","Calcium","mmol/L",2.25186818785108,"2.2","2.6"
"01-026","End of Study","7","2016-02-25","372","Serum","Chloride","mmol/L",,"98","106"
"01-026","End of Study","7","2016-02-25","372","Serum","Creatinine","μmol/L",57.3695303961827,"61.9","115"
"01-026","End of Study","7","2016-02-25","372","Serum","Direct Bilirubin","μmol/L",7.95130391256018,"0","5.1"
"01-026","End of Study","7","2016-02-25","372","Serum","IgE","mg/L",0.380821228502852,"0.1","0.4"
"01-026","End of Study","7","2016-02-25","372","Serum","Magnesium","mmol/L",0.819502497161127,"0.62","0.99"
"01-026","End of Study","7","2016-02-25","372","Blood","Platelet count","x 109/L",262.867914237524,"150","350"
"01-026","End of Study","7","2016-02-25","372","Serum","Potassium","mmol/L",5.39686925479143,"3.5","5"
"01-026","End of Study","7","2016-02-25","372","Blood","RBC count","x 1012 cells/L",4.6918722068319,"4.2","5.9"
"01-026","End of Study","7","2016-02-25","372","Serum","Sodium","mmol/L",136.972309235738,"136","145"
"01-026","End of Study","7","2016-02-25","372","Serum","Total Bilirubin","μmol/L",24.3631093606588,"5.1","20.5"
"01-026","End of Study","7","2016-02-25","372","Blood","WBC count","x 109 cells/L",12.603647352557,"4.5","11"
"01-027","Screening","0","2015-06-01","1","Serum","Albumin","g/L",53.5557173163971,"35","55"
"01-027","Screening","0","2015-06-01","1","Serum","Alkaline phosphatase (ALP)","μkat/L",0.804751264716012,"0.5","1.5"
"01-027","Screening","0","2015-06-01","1","Serum","Aminotransferase, alanine (ALT)","pkat/L",0.0321040780476086,"0","0.58"
"01-027","Screening","0","2015-06-01","1","Serum","Aminotransferase, aspartate (AST)","pkat/L",0.76444015736058,"0","0.58"
"01-027","Screening","0","2015-06-01","1","Serum","Calcium","mmol/L",2.48384466622405,"2.2","2.6"
"01-027","Screening","0","2015-06-01","1","Serum","Chloride","mmol/L",97.5150364927655,"98","106"
"01-027","Screening","0","2015-06-01","1","Serum","Creatinine","μmol/L",113.320174567423,"61.9","115"
"01-027","Screening","0","2015-06-01","1","Serum","Direct Bilirubin","μmol/L",3.053069526476,"0","5.1"
"01-027","Screening","0","2015-06-01","1","Serum","IgE","mg/L",0.153906280753741,"0.1","0.4"
"01-027","Screening","0","2015-06-01","1","Serum","Magnesium","mmol/L",0.640185357724955,"0.62","0.99"
"01-027","Screening","0","2015-06-01","1","Blood","Platelet count","x 109/L",171.022241689893,"150","350"
"01-027","Screening","0","2015-06-01","1","Serum","Potassium","mmol/L",4.63641030702266,"3.5","5"
"01-027","Screening","0","2015-06-01","1","Blood","RBC count","x 1012 cells/L",6.05304708541116,"4.2","5.9"
"01-027","Screening","0","2015-06-01","1","Serum","Sodium","mmol/L",134.317783809167,"136","145"
"01-027","Screening","0","2015-06-01","1","Serum","Total Bilirubin","μmol/L",20.3485504568193,"5.1","20.5"
"01-027","Screening","0","2015-06-01","1","Blood","WBC count","x 109 cells/L",9.92524106921706,"4.5","11"
"01-027","Visit 1","1","2015-07-26","56","Serum","Albumin","g/L",38.6673403414367,"35","55"
"01-027","Visit 1","1","2015-07-26","56","Serum","Alkaline phosphatase (ALP)","μkat/L",0.922088038536271,"0.5","1.5"
"01-027","Visit 1","1","2015-07-26","56","Serum","Aminotransferase, alanine (ALT)","pkat/L",0.336380928319892,"0","0.58"
"01-027","Visit 1","1","2015-07-26","56","Serum","Aminotransferase, aspartate (AST)","pkat/L",0.0498539447569646,"0","0.58"
"01-027","Visit 1","1","2015-07-26","56","Serum","Calcium","mmol/L",,"2.2","2.6"
"01-027","Visit 1","1","2015-07-26","56","Serum","Chloride","mmol/L",102.509828403558,"98","106"
"01-027","Visit 1","1","2015-07-26","56","Serum","Creatinine","μmol/L",73.3066984497222,"61.9","115"
"01-027","Visit 1","1","2015-07-26","56","Serum","Direct Bilirubin","μmol/L",0,"0","5.1"
"01-027","Visit 1","1","2015-07-26","56","Serum","IgE","mg/L",0.17558602261562,"0.1","0.4"
"01-027","Visit 1","1","2015-07-26","56","Serum","Magnesium","mmol/L",0.936614776232952,"0.62","0.99"
"01-027","Visit 1","1","2015-07-26","56","Blood","Platelet count","x 109/L",230.161563488514,"150","350"
"01-027","Visit 1","1","2015-07-26","56","Serum","Potassium","mmol/L",4.06220232813802,"3.5","5"
"01-027","Visit 1","1","2015-07-26","56","Blood","RBC count","x 1012 cells/L",5.30218040766624,"4.2","5.9"
"01-027","Visit 1","1","2015-07-26","56","Serum","Sodium","mmol/L",136.720524618703,"136","145"
"01-027","Visit 1","1","2015-07-26","56","Serum","Total Bilirubin","μmol/L",19.2099604897995,"5.1","20.5"
"01-027","Visit 1","1","2015-07-26","56","Blood","WBC count","x 109 cells/L",8.7319519811473,"4.5","11"
"01-027","Visit 2","2","2015-09-15","107","Serum","Albumin","g/L",44.4344018529223,"35","55"
"01-027","Visit 2","2","2015-09-15","107","Serum","Alkaline phosphatase (ALP)","μkat/L",1.71738918688003,"0.5","1.5"
"01-027","Visit 2","2","2015-09-15","107","Serum","Aminotransferase, alanine (ALT)","pkat/L",0.130808825491923,"0","0.58"
"01-027","Visit 2","2","2015-09-15","107","Serum","Aminotransferase, aspartate (AST)","pkat/L",,"0","0.58"
"01-027","Visit 2","2","2015-09-15","107","Serum","Calcium","mmol/L",2.51721545375497,"2.2","2.6"
"01-027","Visit 2","2","2015-09-15","107","Serum","Chloride","mmol/L",105.048072586076,"98","106"
"01-027","Visit 2","2","2015-09-15","107","Serum","Creatinine","μmol/L",54.310090618424,"61.9","115"
"01-027","Visit 2","2","2015-09-15","107","Serum","Direct Bilirubin","μmol/L",1.85556336600735,"0","5.1"
"01-027","Visit 2","2","2015-09-15","107","Serum","IgE","mg/L",0.367389452803226,"0.1","0.4"
"01-027","Visit 2","2","2015-09-15","107","Serum","Magnesium","mmol/L",0.734860776671561,"0.62","0.99"
"01-027","Visit 2","2","2015-09-15","107","Blood","Platelet count","x 109/L",116.206149200075,"150","350"
"01-027","Visit 2","2","2015-09-15","107","Serum","Potassium","mmol/L",4.66427525458931,"3.5","5"
"01-027","Visit 2","2","2015-09-15","107","Blood","RBC count","x 1012 cells/L",6.80879202290361,"4.2","5.9"
"01-027","Visit 2","2","2015-09-15","107","Serum","Sodium","mmol/L",132.671627169346,"136","145"
"01-027","Visit 2","2","2015-09-15","107","Serum","Total Bilirubin","μmol/L",15.0566669388327,"5.1","20.5"
"01-027","Visit 2","2","2015-09-15","107","Blood","WBC count","x 109 cells/L",6.15207692869777,"4.5","11"
"01-028","Screening","0","2015-11-12","1","Serum","Albumin","g/L",,"35","55"
"01-028","Screening","0","2015-11-12","1","Serum","Alkaline phosphatase (ALP)","μkat/L",1.18510903248193,"0.5","1.5"
"01-028","Screening","0","2015-11-12","1","Serum","Aminotransferase, alanine (ALT)","pkat/L",0.721022743824967,"0","0.58"
"01-028","Screening","0","2015-11-12","1","Serum","Aminotransferase, aspartate (AST)","pkat/L",0.112571792079748,"0","0.58"
"01-028","Screening","0","2015-11-12","1","Serum","Calcium","mmol/L",2.76102764129508,"2.2","2.6"
"01-028","Screening","0","2015-11-12","1","Serum","Chloride","mmol/L",95.8242246165678,"98","106"
"01-028","Screening","0","2015-11-12","1","Serum","Creatinine","μmol/L",85.0158444279275,"61.9","115"
"01-028","Screening","0","2015-11-12","1","Serum","Direct Bilirubin","μmol/L",5.14667867518846,"0","5.1"
"01-028","Screening","0","2015-11-12","1","Serum","IgE","mg/L",0.425359489279895,"0.1","0.4"
"01-028","Screening","0","2015-11-12","1","Serum","Magnesium","mmol/L",0.927686004963399,"0.62","0.99"
"01-028","Screening","0","2015-11-12","1","Blood","Platelet count","x 109/L",254.320736224597,"150","350"
"01-028","Screening","0","2015-11-12","1","Serum","Potassium","mmol/L",3.18850549437293,"3.5","5"
"01-028","Screening","0","2015-11-12","1","Blood","RBC count","x 1012 cells/L",5.40310372819155,"4.2","5.9"
"01-028","Screening","0","2015-11-12","1","Serum","Sodium","mmol/L",141.935442015025,"136","145"
"01-028","Screening","0","2015-11-12","1","Serum","Total Bilirubin","μmol/L",22.8040113325909,"5.1","20.5"
"01-028","Screening","0","2015-11-12","1","Blood","WBC count","x 109 cells/L",12.8551301435162,"4.5","11"
"01-028","Visit 1","1","2016-01-02","52","Serum","Albumin","g/L",35.83648417829,"35","55"
"01-028","Visit 1","1","2016-01-02","52","Serum","Alkaline phosphatase (ALP)","μkat/L",1.48782857151549,"0.5","1.5"
"01-028","Visit 1","1","2016-01-02","52","Serum","Aminotransferase, alanine (ALT)","pkat/L",0.317399832973213,"0","0.58"
"01-028","Visit 1","1","2016-01-02","52","Serum","Aminotransferase, aspartate (AST)","pkat/L",0.0225567847265987,"0","0.58"
"01-028","Visit 1","1","2016-01-02","52","Serum","Calcium","mmol/L",,"2.2","2.6"
"01-028","Visit 1","1","2016-01-02","52","Serum","Chloride","mmol/L",105.482028852263,"98","106"
"01-028","Visit 1","1","2016-01-02","52","Serum","Creatinine","μmol/L",83.0923736967634,"61.9","115"
"01-028","Visit 1","1","2016-01-02","52","Serum","Direct Bilirubin","μmol/L",1.07193098545862,"0","5.1"
"01-028","Visit 1","1","2016-01-02","52","Serum","IgE","mg/L",0.288662682954314,"0.1","0.4"
"01-028","Visit 1","1","2016-01-02","52","Serum","Magnesium","mmol/L",0.765667673114497,"0.62","0.99"
"01-028","Visit 1","1","2016-01-02","52","Blood","Platelet count","x 109/L",277.9264960789,"150","350"
"01-028","Visit 1","1","2016-01-02","52","Serum","Potassium","mmol/L",5.72673682675706,"3.5","5"
"01-028","Visit 1","1","2016-01-02","52","Blood","RBC count","x 1012 cells/L",5.86363825411296,"4.2","5.9"
"01-028","Visit 1","1","2016-01-02","52","Serum","Sodium","mmol/L",143.125065684314,"136","145"
"01-028","Visit 1","1","2016-01-02","52","Serum","Total Bilirubin","μmol/L",14.1025455675082,"5.1","20.5"
"01-028","Visit 1","1","2016-01-02","52","Blood","WBC count","x 109 cells/L",15.1835856919728,"4.5","11"
"01-028","Unscheduled 1.1","1.1","2016-01-10","60","Serum","Albumin","g/L",28.657162777593,"35","55"
"01-028","Unscheduled 1.1","1.1","2016-01-10","60","Serum","Alkaline phosphatase (ALP)","μkat/L",0.813024672676284,"0.5","1.5"
"01-028","Unscheduled 1.1","1.1","2016-01-10","60","Serum","Aminotransferase, alanine (ALT)","pkat/L",0.0664507070767463,"0","0.58"
"01-028","Unscheduled 1.1","1.1","2016-01-10","60","Serum","Aminotransferase, aspartate (AST)","pkat/L",0.173228158618885,"0","0.58"
"01-028","Unscheduled 1.1","1.1","2016-01-10","60","Serum","Calcium","mmol/L",2.91676848596704,"2.2","2.6"
"01-028","Unscheduled 1.1","1.1","2016-01-10","60","Serum","Chloride","mmol/L",102.306953452513,"98","106"
"01-028","Unscheduled 1.1","1.1","2016-01-10","60","Serum","Creatinine","μmol/L",55.8431631925214,"61.9","115"
"01-028","Unscheduled 1.1","1.1","2016-01-10","60","Serum","Direct Bilirubin","μmol/L",1.56982744630127,"0","5.1"
"01-028","Unscheduled 1.1","1.1","2016-01-10","60","Serum","IgE","mg/L",,"0.1","0.4"
"01-028","Unscheduled 1.1","1.1","2016-01-10","60","Serum","Magnesium","mmol/L",0.687418593224161,"0.62","0.99"
"01-028","Unscheduled 1.1","1.1","2016-01-10","60","Blood","Platelet count","x 109/L",396.397694718643,"150","350"
"01-028","Unscheduled 1.1","1.1","2016-01-10","60","Serum","Potassium","mmol/L",2.75622458835129,"3.5","5"
"01-028","Unscheduled 1.1","1.1","2016-01-10","60","Blood","RBC count","x 1012 cells/L",7.17259627254174,"4.2","5.9"
"01-028","Unscheduled 1.1","1.1","2016-01-10","60","Serum","Sodium","mmol/L",141.966855252178,"136","145"
"01-028","Unscheduled 1.1","1.1","2016-01-10","60","Serum","Total Bilirubin","μmol/L",13.3774604359548,"5.1","20.5"
"01-028","Unscheduled 1.1","1.1","2016-01-10","60","Blood","WBC count","x 109 cells/L",6.44572922665822,"4.5","11"
"01-028","Visit 2","2","2016-03-06","116","Serum","Albumin","g/L",45.3017043129916,"35","55"
"01-028","Visit 2","2","2016-03-06","116","Serum","Alkaline phosphatase (ALP)","μkat/L",0.525577404020906,"0.5","1.5"
"01-028","Visit 2","2","2016-03-06","116","Serum","Aminotransferase, alanine (ALT)","pkat/L",0.20668169576398,"0","0.58"
"01-028","Visit 2","2","2016-03-06","116","Serum","Aminotransferase, aspartate (AST)","pkat/L",,"0","0.58"
"01-028","Visit 2","2","2016-03-06","116","Serum","Calcium","mmol/L",2.47098468432352,"2.2","2.6"
"01-028","Visit 2","2","2016-03-06","116","Serum","Chloride","mmol/L",102.680772506223,"98","106"
"01-028","Visit 2","2","2016-03-06","116","Serum","Creatinine","μmol/L",111.510663813524,"61.9","115"
"01-028","Visit 2","2","2016-03-06","116","Serum","Direct Bilirubin","μmol/L",4.97394952069643,"0","5.1"
"01-028","Visit 2","2","2016-03-06","116","Serum","IgE","mg/L",0.317568034753654,"0.1","0.4"
"01-028","Visit 2","2","2016-03-06","116","Serum","Magnesium","mmol/L",0.864493277686945,"0.62","0.99"
"01-028","Visit 2","2","2016-03-06","116","Blood","Platelet count","x 109/L",363.954848928397,"150","350"
"01-028","Visit 2","2","2016-03-06","116","Serum","Potassium","mmol/L",4.47977576905568,"3.5","5"
"01-028","Visit 2","2","2016-03-06","116","Blood","RBC count","x 1012 cells/L",3.31821542753673,"4.2","5.9"
"01-028","Visit 2","2","2016-03-06","116","Serum","Sodium","mmol/L",132.612833299531,"136","145"
"01-028","Visit 2","2","2016-03-06","116","Serum","Total Bilirubin","μmol/L",9.05555684346808,"5.1","20.5"
"01-028","Visit 2","2","2016-03-06","116","Blood","WBC count","x 109 cells/L",10.866357723249,"4.5","11"
"01-028","Visit 3","3","2016-04-25","166","Serum","Albumin","g/L",42.8790942681526,"35","55"
"01-028","Visit 3","3","2016-04-25","166","Serum","Alkaline phosphatase (ALP)","μkat/L",1.51019706032905,"0.5","1.5"
"01-028","Visit 3","3","2016-04-25","166","Serum","Aminotransferase, alanine (ALT)","pkat/L",0.142726678150371,"0","0.58"
"01-028","Visit 3","3","2016-04-25","166","Serum","Aminotransferase, aspartate (AST)","pkat/L",0.708576262731219,"0","0.58"
"01-028","Visit 3","3","2016-04-25","166","Serum","Calcium","mmol/L",2.25374941734911,"2.2","2.6"
"01-028","Visit 3","3","2016-04-25","166","Serum","Chloride","mmol/L",,"98","106"
"01-028","Visit 3","3","2016-04-25","166","Serum","Creatinine","μmol/L",80.244599752557,"61.9","115"
"01-028","Visit 3","3","2016-04-25","166","Serum","Direct Bilirubin","μmol/L",0,"0","5.1"
"01-028","Visit 3","3","2016-04-25","166","Serum","IgE","mg/L",0.363123312999171,"0.1","0.4"
"01-028","Visit 3","3","2016-04-25","166","Serum","Magnesium","mmol/L",0.559250818485594,"0.62","0.99"
"01-028","Visit 3","3","2016-04-25","166","Blood","Platelet count","x 109/L",293.611731819408,"150","350"
"01-028","Visit 3","3","2016-04-25","166","Serum","Potassium","mmol/L",4.89816518549941,"3.5","5"
"01-028","Visit 3","3","2016-04-25","166","Blood","RBC count","x 1012 cells/L",4.66853921502048,"4.2","5.9"
"01-028","Visit 3","3","2016-04-25","166","Serum","Sodium","mmol/L",140.090263818764,"136","145"
"01-028","Visit 3","3","2016-04-25","166","Serum","Total Bilirubin","μmol/L",10.6228892266716,"5.1","20.5"
"01-028","Visit 3","3","2016-04-25","166","Blood","WBC count","x 109 cells/L",6.41088864821406,"4.5","11"
"01-028","Visit 4","4","2016-06-21","223","Serum","Albumin","g/L",40.4527675413427,"35","55"
"01-028","Visit 4","4","2016-06-21","223","Serum","Alkaline phosphatase (ALP)","μkat/L",,"0.5","1.5"
"01-028","Visit 4","4","2016-06-21","223","Serum","Aminotransferase, alanine (ALT)","pkat/L",,"0","0.58"
"01-028","Visit 4","4","2016-06-21","223","Serum","Aminotransferase, aspartate (AST)","pkat/L",0.617335464352424,"0","0.58"
"01-028","Visit 4","4","2016-06-21","223","Serum","Calcium","mmol/L",2.22742552338845,"2.2","2.6"
"01-028","Visit 4","4","2016-06-21","223","Serum","Chloride","mmol/L",103.522438385883,"98","106"
"01-028","Visit 4","4","2016-06-21","223","Serum","Creatinine","μmol/L",56.9908708412818,"61.9","115"
"01-028","Visit 4","4","2016-06-21","223","Serum","Direct Bilirubin","μmol/L",7.18463520751135,"0","5.1"
"01-028","Visit 4","4","2016-06-21","223","Serum","IgE","mg/L",0.286500044540255,"0.1","0.4"
"01-028","Visit 4","4","2016-06-21","223","Serum","Magnesium","mmol/L",0.610200395243656,"0.62","0.99"
"01-028","Visit 4","4","2016-06-21","223","Blood","Platelet count","x 109/L",,"150","350"
"01-028","Visit 4","4","2016-06-21","223","Serum","Potassium","mmol/L",4.09179022962235,"3.5","5"
"01-028","Visit 4","4","2016-06-21","223","Blood","RBC count","x 1012 cells/L",,"4.2","5.9"
"01-028","Visit 4","4","2016-06-21","223","Serum","Sodium","mmol/L",,"136","145"
"01-028","Visit 4","4","2016-06-21","223","Serum","Total Bilirubin","μmol/L",2.85932219783989,"5.1","20.5"
"01-028","Visit 4","4","2016-06-21","223","Blood","WBC count","x 109 cells/L",,"4.5","11"
"01-028","Visit 5","5","2016-08-19","282","Serum","Albumin","g/L",45.6634230772046,"35","55"
"01-028","Visit 5","5","2016-08-19","282","Serum","Alkaline phosphatase (ALP)","μkat/L",1.31963159550662,"0.5","1.5"
"01-028","Visit 5","5","2016-08-19","282","Serum","Aminotransferase, alanine (ALT)","pkat/L",0.0469354959945822,"0","0.58"
"01-028","Visit 5","5","2016-08-19","282","Serum","Aminotransferase, aspartate (AST)","pkat/L",0.305595712351966,"0","0.58"
"01-028","Visit 5","5","2016-08-19","282","Serum","Calcium","mmol/L",2.29171975486137,"2.2","2.6"
"01-028","Visit 5","5","2016-08-19","282","Serum","Chloride","mmol/L",,"98","106"
"01-028","Visit 5","5","2016-08-19","282","Serum","Creatinine","μmol/L",,"61.9","115"
"01-028","Visit 5","5","2016-08-19","282","Serum","Direct Bilirubin","μmol/L",2.93206846635019,"0","5.1"
"01-028","Visit 5","5","2016-08-19","282","Serum","IgE","mg/L",,"0.1","0.4"
"01-028","Visit 5","5","2016-08-19","282","Serum","Magnesium","mmol/L",0.671428731568992,"0.62","0.99"
"01-028","Visit 5","5","2016-08-19","282","Blood","Platelet count","x 109/L",211.955561192754,"150","350"
"01-028","Visit 5","5","2016-08-19","282","Serum","Potassium","mmol/L",2.59160024367593,"3.5","5"
"01-028","Visit 5","5","2016-08-19","282","Blood","RBC count","x 1012 cells/L",6.12064961960655,"4.2","5.9"
"01-028","Visit 5","5","2016-08-19","282","Serum","Sodium","mmol/L",140.57480252398,"136","145"
"01-028","Visit 5","5","2016-08-19","282","Serum","Total Bilirubin","μmol/L",7.42643505856684,"5.1","20.5"
"01-028","Visit 5","5","2016-08-19","282","Blood","WBC count","x 109 cells/L",7.6398754736105,"4.5","11"
"01-028","Visit 6","6","2016-10-09","333","Serum","Albumin","g/L",50.9972138273931,"35","55"
"01-028","Visit 6","6","2016-10-09","333","Serum","Alkaline phosphatase (ALP)","μkat/L",0.669269089837689,"0.5","1.5"
"01-028","Visit 6","6","2016-10-09","333","Serum","Aminotransferase, alanine (ALT)","pkat/L",0.510390996876729,"0","0.58"
"01-028","Visit 6","6","2016-10-09","333","Serum","Aminotransferase, aspartate (AST)","pkat/L",0.688591154231244,"0","0.58"
"01-028","Visit 6","6","2016-10-09","333","Serum","Calcium","mmol/L",,"2.2","2.6"
"01-028","Visit 6","6","2016-10-09","333","Serum","Chloride","mmol/L",98.6402609074191,"98","106"
"01-028","Visit 6","6","2016-10-09","333","Serum","Creatinine","μmol/L",99.8030985220355,"61.9","115"
"01-028","Visit 6","6","2016-10-09","333","Serum","Direct Bilirubin","μmol/L",1.72489380042781,"0","5.1"
"01-028","Visit 6","6","2016-10-09","333","Serum","IgE","mg/L",0.327187267616949,"0.1","0.4"
"01-028","Visit 6","6","2016-10-09","333","Serum","Magnesium","mmol/L",1.21079024550231,"0.62","0.99"
"01-028","Visit 6","6","2016-10-09","333","Blood","Platelet count","x 109/L",255.070008583736,"150","350"
"01-028","Visit 6","6","2016-10-09","333","Serum","Potassium","mmol/L",4.55521347540194,"3.5","5"
"01-028","Visit 6","6","2016-10-09","333","Blood","RBC count","x 1012 cells/L",5.10526209364993,"4.2","5.9"
"01-028","Visit 6","6","2016-10-09","333","Serum","Sodium","mmol/L",136.670244193473,"136","145"
"01-028","Visit 6","6","2016-10-09","333","Serum","Total Bilirubin","μmol/L",13.6363521345035,"5.1","20.5"
"01-028","Visit 6","6","2016-10-09","333","Blood","WBC count","x 109 cells/L",8.82683646166612,"4.5","11"
"01-028","Unscheduled 6.1","6.1","2016-10-17","341","Serum","Albumin","g/L",39.7348698550938,"35","55"
"01-028","Unscheduled 6.1","6.1","2016-10-17","341","Serum","Alkaline phosphatase (ALP)","μkat/L",0.370161298368299,"0.5","1.5"
"01-028","Unscheduled 6.1","6.1","2016-10-17","341","Serum","Aminotransferase, alanine (ALT)","pkat/L",0.100097404734344,"0","0.58"
"01-028","Unscheduled 6.1","6.1","2016-10-17","341","Serum","Aminotransferase, aspartate (AST)","pkat/L",0.397033244631996,"0","0.58"
"01-028","Unscheduled 6.1","6.1","2016-10-17","341","Serum","Calcium","mmol/L",2.40398225016702,"2.2","2.6"
"01-028","Unscheduled 6.1","6.1","2016-10-17","341","Serum","Chloride","mmol/L",103.857585485325,"98","106"
"01-028","Unscheduled 6.1","6.1","2016-10-17","341","Serum","Creatinine","μmol/L",0,"61.9","115"
"01-028","Unscheduled 6.1","6.1","2016-10-17","341","Serum","Direct Bilirubin","μmol/L",2.58945229347729,"0","5.1"
"01-028","Unscheduled 6.1","6.1","2016-10-17","341","Serum","IgE","mg/L",,"0.1","0.4"
"01-028","Unscheduled 6.1","6.1","2016-10-17","341","Serum","Magnesium","mmol/L",0.314224708758619,"0.62","0.99"
"01-028","Unscheduled 6.1","6.1","2016-10-17","341","Blood","Platelet count","x 109/L",227.346011542866,"150","350"
"01-028","Unscheduled 6.1","6.1","2016-10-17","341","Serum","Potassium","mmol/L",2.70872512567271,"3.5","5"
"01-028","Unscheduled 6.1","6.1","2016-10-17","341","Blood","RBC count","x 1012 cells/L",5.89794610421769,"4.2","5.9"
"01-028","Unscheduled 6.1","6.1","2016-10-17","341","Serum","Sodium","mmol/L",137.900921738515,"136","145"
"01-028","Unscheduled 6.1","6.1","2016-10-17","341","Serum","Total Bilirubin","μmol/L",8.45619261574969,"5.1","20.5"
"01-028","Unscheduled 6.1","6.1","2016-10-17","341","Blood","WBC count","x 109 cells/L",6.7760661975735,"4.5","11"
"01-028","End of Study","7","2016-11-04","359","Serum","Albumin","g/L",47.3930018084874,"35","55"
"01-028","End of Study","7","2016-11-04","359","Serum","Alkaline phosphatase (ALP)","μkat/L",0.566933434364699,"0.5","1.5"
"01-028","End of Study","7","2016-11-04","359","Serum","Aminotransferase, alanine (ALT)","pkat/L",0.573024420419851,"0","0.58"
"01-028","End of Study","7","2016-11-04","359","Serum","Aminotransferase, aspartate (AST)","pkat/L",0.496016904948633,"0","0.58"
"01-028","End of Study","7","2016-11-04","359","Serum","Calcium","mmol/L",2.3719918738918,"2.2","2.6"
"01-028","End of Study","7","2016-11-04","359","Serum","Chloride","mmol/L",,"98","106"
"01-028","End of Study","7","2016-11-04","359","Serum","Creatinine","μmol/L",104.440579847066,"61.9","115"
"01-028","End of Study","7","2016-11-04","359","Serum","Direct Bilirubin","μmol/L",2.85068160643002,"0","5.1"
"01-028","End of Study","7","2016-11-04","359","Serum","IgE","mg/L",0.209929830753317,"0.1","0.4"
"01-028","End of Study","7","2016-11-04","359","Serum","Magnesium","mmol/L",0.919530450028905,"0.62","0.99"
"01-028","End of Study","7","2016-11-04","359","Blood","Platelet count","x 109/L",311.467463566321,"150","350"
"01-028","End of Study","7","2016-11-04","359","Serum","Potassium","mmol/L",4.59635299316368,"3.5","5"
"01-028","End of Study","7","2016-11-04","359","Blood","RBC count","x 1012 cells/L",5.83342639938223,"4.2","5.9"
"01-028","End of Study","7","2016-11-04","359","Serum","Sodium","mmol/L",139.367672330665,"136","145"
"01-028","End of Study","7","2016-11-04","359","Serum","Total Bilirubin","μmol/L",19.9738599859332,"5.1","20.5"
"01-028","End of Study","7","2016-11-04","359","Blood","WBC count","x 109 cells/L",7.59434025681632,"4.5","11"
"01-029","Screening","0","2015-06-10","1","Serum","Albumin","g/L",44.6140791710249,"35","55"
"01-029","Screening","0","2015-06-10","1","Serum","Alkaline phosphatase (ALP)","μkat/L",1.83829929729157,"0.5","1.5"
"01-029","Screening","0","2015-06-10","1","Serum","Aminotransferase, alanine (ALT)","pkat/L",0.446613397235024,"0","0.58"
"01-029","Screening","0","2015-06-10","1","Serum","Aminotransferase, aspartate (AST)","pkat/L",0.778693360385124,"0","0.58"
"01-029","Screening","0","2015-06-10","1","Serum","Calcium","mmol/L",2.62057961934746,"2.2","2.6"
"01-029","Screening","0","2015-06-10","1","Serum","Chloride","mmol/L",102.943185592139,"98","106"
"01-029","Screening","0","2015-06-10","1","Serum","Creatinine","μmol/L",113.275404368836,"61.9","115"
"01-029","Screening","0","2015-06-10","1","Serum","Direct Bilirubin","μmol/L",4.77573867830045,"0","5.1"
"01-029","Screening","0","2015-06-10","1","Serum","IgE","mg/L",0.285477395269288,"0.1","0.4"
"01-029","Screening","0","2015-06-10","1","Serum","Magnesium","mmol/L",0.817312938845979,"0.62","0.99"
"01-029","Screening","0","2015-06-10","1","Blood","Platelet count","x 109/L",337.735338172811,"150","350"
"01-029","Screening","0","2015-06-10","1","Serum","Potassium","mmol/L",6.35385445016321,"3.5","5"
"01-029","Screening","0","2015-06-10","1","Blood","RBC count","x 1012 cells/L",5.49576481337575,"4.2","5.9"
"01-029","Screening","0","2015-06-10","1","Serum","Sodium","mmol/L",142.387451148545,"136","145"
"01-029","Screening","0","2015-06-10","1","Serum","Total Bilirubin","μmol/L",15.6168759928203,"5.1","20.5"
"01-029","Screening","0","2015-06-10","1","Blood","WBC count","x 109 cells/L",9.34763979237177,"4.5","11"
"01-029","Visit 1","1","2015-08-06","58","Serum","Albumin","g/L",44.2399350451113,"35","55"
"01-029","Visit 1","1","2015-08-06","58","Serum","Alkaline phosphatase (ALP)","μkat/L",0.834282616708747,"0.5","1.5"
"01-029","Visit 1","1","2015-08-06","58","Serum","Aminotransferase, alanine (ALT)","pkat/L",0.311570145921959,"0","0.58"
"01-029","Visit 1","1","2015-08-06","58","Serum","Aminotransferase, aspartate (AST)","pkat/L",0.0722009346255832,"0","0.58"
"01-029","Visit 1","1","2015-08-06","58","Serum","Calcium","mmol/L",,"2.2","2.6"
"01-029","Visit 1","1","2015-08-06","58","Serum","Chloride","mmol/L",99.0934452385958,"98","106"
"01-029","Visit 1","1","2015-08-06","58","Serum","Creatinine","μmol/L",116.239844566,"61.9","115"
"01-029","Visit 1","1","2015-08-06","58","Serum","Direct Bilirubin","μmol/L",4.22163710269304,"0","5.1"
"01-029","Visit 1","1","2015-08-06","58","Serum","IgE","mg/L",0.13705169730564,"0.1","0.4"
"01-029","Visit 1","1","2015-08-06","58","Serum","Magnesium","mmol/L",0.517952780062522,"0.62","0.99"
"01-029","Visit 1","1","2015-08-06","58","Blood","Platelet count","x 109/L",172.923237611103,"150","350"
"01-029","Visit 1","1","2015-08-06","58","Serum","Potassium","mmol/L",2.90168989480718,"3.5","5"
"01-029","Visit 1","1","2015-08-06","58","Blood","RBC count","x 1012 cells/L",6.43586576927594,"4.2","5.9"
"01-029","Visit 1","1","2015-08-06","58","Serum","Sodium","mmol/L",141.018422878829,"136","145"
"01-029","Visit 1","1","2015-08-06","58","Serum","Total Bilirubin","μmol/L",7.58454942662718,"5.1","20.5"
"01-029","Visit 1","1","2015-08-06","58","Blood","WBC count","x 109 cells/L",,"4.5","11"
"01-029","Unscheduled 1.1","1.1","2015-08-14","66","Serum","Albumin","g/L",56.0933729568853,"35","55"
"01-029","Unscheduled 1.1","1.1","2015-08-14","66","Serum","Alkaline phosphatase (ALP)","μkat/L",1.34035581748908,"0.5","1.5"
"01-029","Unscheduled 1.1","1.1","2015-08-14","66","Serum","Aminotransferase, alanine (ALT)","pkat/L",0.490210382797798,"0","0.58"
"01-029","Unscheduled 1.1","1.1","2015-08-14","66","Serum","Aminotransferase, aspartate (AST)","pkat/L",0.185558957954221,"0","0.58"
"01-029","Unscheduled 1.1","1.1","2015-08-14","66","Serum","Calcium","mmol/L",2.40679366231866,"2.2","2.6"
"01-029","Unscheduled 1.1","1.1","2015-08-14","66","Serum","Chloride","mmol/L",102.575494154718,"98","106"
"01-029","Unscheduled 1.1","1.1","2015-08-14","66","Serum","Creatinine","μmol/L",69.4851193910773,"61.9","115"
"01-029","Unscheduled 1.1","1.1","2015-08-14","66","Serum","Direct Bilirubin","μmol/L",0,"0","5.1"
"01-029","Unscheduled 1.1","1.1","2015-08-14","66","Serum","IgE","mg/L",0.27802140020469,"0.1","0.4"
"01-029","Unscheduled 1.1","1.1","2015-08-14","66","Serum","Magnesium","mmol/L",0.631263048818369,"0.62","0.99"
"01-029","Unscheduled 1.1","1.1","2015-08-14","66","Blood","Platelet count","x 109/L",68.491085572703,"150","350"
"01-029","Unscheduled 1.1","1.1","2015-08-14","66","Serum","Potassium","mmol/L",3.79639718034022,"3.5","5"
"01-029","Unscheduled 1.1","1.1","2015-08-14","66","Blood","RBC count","x 1012 cells/L",4.26455021779256,"4.2","5.9"
"01-029","Unscheduled 1.1","1.1","2015-08-14","66","Serum","Sodium","mmol/L",138.879240536328,"136","145"
"01-029","Unscheduled 1.1","1.1","2015-08-14","66","Serum","Total Bilirubin","μmol/L",8.92890147968282,"5.1","20.5"
"01-029","Unscheduled 1.1","1.1","2015-08-14","66","Blood","WBC count","x 109 cells/L",12.5871496949966,"4.5","11"
"01-029","Visit 3","3","2015-11-18","162","Serum","Albumin","g/L",27.6241054548468,"35","55"
"01-029","Visit 3","3","2015-11-18","162","Serum","Alkaline phosphatase (ALP)","μkat/L",0.445823625690983,"0.5","1.5"
"01-029","Visit 3","3","2015-11-18","162","Serum","Aminotransferase, alanine (ALT)","pkat/L",0.341868244206267,"0","0.58"
"01-029","Visit 3","3","2015-11-18","162","Serum","Aminotransferase, aspartate (AST)","pkat/L",0.217649136990859,"0","0.58"
"01-029","Visit 3","3","2015-11-18","162","Serum","Calcium","mmol/L",2.13800694908676,"2.2","2.6"
"01-029","Visit 3","3","2015-11-18","162","Serum","Chloride","mmol/L",,"98","106"
"01-029","Visit 3","3","2015-11-18","162","Serum","Creatinine","μmol/L",118.870971851112,"61.9","115"
"01-029","Visit 3","3","2015-11-18","162","Serum","Direct Bilirubin","μmol/L",7.23874205717595,"0","5.1"
"01-029","Visit 3","3","2015-11-18","162","Serum","IgE","mg/L",0.480991362388109,"0.1","0.4"
"01-029","Visit 3","3","2015-11-18","162","Serum","Magnesium","mmol/L",0.918589707608714,"0.62","0.99"
"01-029","Visit 3","3","2015-11-18","162","Blood","Platelet count","x 109/L",281.27959185209,"150","350"
"01-029","Visit 3","3","2015-11-18","162","Serum","Potassium","mmol/L",4.32956995225215,"3.5","5"
"01-029","Visit 3","3","2015-11-18","162","Blood","RBC count","x 1012 cells/L",4.45535992592041,"4.2","5.9"
"01-029","Visit 3","3","2015-11-18","162","Serum","Sodium","mmol/L",141.519220955996,"136","145"
"01-029","Visit 3","3","2015-11-18","162","Serum","Total Bilirubin","μmol/L",10.4136419025654,"5.1","20.5"
"01-029","Visit 3","3","2015-11-18","162","Blood","WBC count","x 109 cells/L",10.5570559093386,"4.5","11"
"01-029","Visit 4","4","2016-01-15","220","Serum","Albumin","g/L",60.3596065556874,"35","55"
"01-029","Visit 4","4","2016-01-15","220","Serum","Alkaline phosphatase (ALP)","μkat/L",,"0.5","1.5"
"01-029","Visit 4","4","2016-01-15","220","Serum","Aminotransferase, alanine (ALT)","pkat/L",,"0","0.58"
"01-029","Visit 4","4","2016-01-15","220","Serum","Aminotransferase, aspartate (AST)","pkat/L",0.13526230127113,"0","0.58"
"01-029","Visit 4","4","2016-01-15","220","Serum","Calcium","mmol/L",2.48616931862418,"2.2","2.6"
"01-029","Visit 4","4","2016-01-15","220","Serum","Chloride","mmol/L",100.936487577688,"98","106"
"01-029","Visit 4","4","2016-01-15","220","Serum","Creatinine","μmol/L",111.161064563758,"61.9","115"
"01-029","Visit 4","4","2016-01-15","220","Serum","Direct Bilirubin","μmol/L",0.939294989702908,"0","5.1"
"01-029","Visit 4","4","2016-01-15","220","Serum","IgE","mg/L",0.181420376675466,"0.1","0.4"
"01-029","Visit 4","4","2016-01-15","220","Serum","Magnesium","mmol/L",0.70920826466272,"0.62","0.99"
"01-029","Visit 4","4","2016-01-15","220","Blood","Platelet count","x 109/L",,"150","350"
"01-029","Visit 4","4","2016-01-15","220","Serum","Potassium","mmol/L",4.41498920679347,"3.5","5"
"01-029","Visit 4","4","2016-01-15","220","Blood","RBC count","x 1012 cells/L",,"4.2","5.9"
"01-029","Visit 4","4","2016-01-15","220","Serum","Sodium","mmol/L",,"136","145"
"01-029","Visit 4","4","2016-01-15","220","Serum","Total Bilirubin","μmol/L",3.35067360555216,"5.1","20.5"
"01-029","Visit 4","4","2016-01-15","220","Blood","WBC count","x 109 cells/L",,"4.5","11"
"02-002","Screening","0","2015-03-16","1","Serum","Albumin","g/L",46.1166430109153,"35","55"
"02-002","Screening","0","2015-03-16","1","Serum","Alkaline phosphatase (ALP)","μkat/L",0.918112576124559,"0.5","1.5"
"02-002","Screening","0","2015-03-16","1","Serum","Aminotransferase, alanine (ALT)","pkat/L",0.458321182077641,"0","0.58"
"02-002","Screening","0","2015-03-16","1","Serum","Aminotransferase, aspartate (AST)","pkat/L",0.218367315500525,"0","0.58"
"02-002","Screening","0","2015-03-16","1","Serum","Calcium","mmol/L",2.36155532916211,"2.2","2.6"
"02-002","Screening","0","2015-03-16","1","Serum","Chloride","mmol/L",104.122892340047,"98","106"
"02-002","Screening","0","2015-03-16","1","Serum","Creatinine","μmol/L",69.1441136582802,"61.9","115"
"02-002","Screening","0","2015-03-16","1","Serum","Direct Bilirubin","μmol/L",0,"0","5.1"
"02-002","Screening","0","2015-03-16","1","Serum","IgE","mg/L",0.508496541478519,"0.1","0.4"
"02-002","Screening","0","2015-03-16","1","Serum","Magnesium","mmol/L",0.564283672678012,"0.62","0.99"
"02-002","Screening","0","2015-03-16","1","Blood","Platelet count","x 109/L",125.551464324597,"150","350"
"02-002","Screening","0","2015-03-16","1","Serum","Potassium","mmol/L",4.28258604990788,"3.5","5"
"02-002","Screening","0","2015-03-16","1","Blood","RBC count","x 1012 cells/L",4.5260879379827,"4.2","5.9"
"02-002","Screening","0","2015-03-16","1","Serum","Sodium","mmol/L",142.32103398846,"136","145"
"02-002","Screening","0","2015-03-16","1","Serum","Total Bilirubin","μmol/L",6.20412124947506,"5.1","20.5"
"02-002","Screening","0","2015-03-16","1","Blood","WBC count","x 109 cells/L",,"4.5","11"
"02-002","Visit 1","1","2015-05-16","62","Serum","Albumin","g/L",60.0124728561067,"35","55"
"02-002","Visit 1","1","2015-05-16","62","Serum","Alkaline phosphatase (ALP)","μkat/L",1.81702629567946,"0.5","1.5"
"02-002","Visit 1","1","2015-05-16","62","Serum","Aminotransferase, alanine (ALT)","pkat/L",0.319317320964898,"0","0.58"
"02-002","Visit 1","1","2015-05-16","62","Serum","Aminotransferase, aspartate (AST)","pkat/L",0.673194961684407,"0","0.58"
"02-002","Visit 1","1","2015-05-16","62","Serum","Calcium","mmol/L",,"2.2","2.6"
"02-002","Visit 1","1","2015-05-16","62","Serum","Chloride","mmol/L",96.2795640507022,"98","106"
"02-002","Visit 1","1","2015-05-16","62","Serum","Creatinine","μmol/L",134.424969534365,"61.9","115"
"02-002","Visit 1","1","2015-05-16","62","Serum","Direct Bilirubin","μmol/L",0.328048282964134,"0","5.1"
"02-002","Visit 1","1","2015-05-16","62","Serum","IgE","mg/L",0.415345942333744,"0.1","0.4"
"02-002","Visit 1","1","2015-05-16","62","Serum","Magnesium","mmol/L",0.869613109296786,"0.62","0.99"
"02-002","Visit 1","1","2015-05-16","62","Blood","Platelet count","x 109/L",240.81731162454,"150","350"
"02-002","Visit 1","1","2015-05-16","62","Serum","Potassium","mmol/L",4.79531813187603,"3.5","5"
"02-002","Visit 1","1","2015-05-16","62","Blood","RBC count","x 1012 cells/L",4.45936568953978,"4.2","5.9"
"02-002","Visit 1","1","2015-05-16","62","Serum","Sodium","mmol/L",143.059372478306,"136","145"
"02-002","Visit 1","1","2015-05-16","62","Serum","Total Bilirubin","μmol/L",18.8083419844017,"5.1","20.5"
"02-002","Visit 1","1","2015-05-16","62","Blood","WBC count","x 109 cells/L",7.58570223342675,"4.5","11"
"02-003","Screening","0","2015-04-27","1","Serum","Albumin","g/L",39.5092210167452,"35","55"
"02-003","Screening","0","2015-04-27","1","Serum","Alkaline phosphatase (ALP)","μkat/L",1.00815844265751,"0.5","1.5"
"02-003","Screening","0","2015-04-27","1","Serum","Aminotransferase, alanine (ALT)","pkat/L",0.471808391603274,"0","0.58"
"02-003","Screening","0","2015-04-27","1","Serum","Aminotransferase, aspartate (AST)","pkat/L",0.867380061682002,"0","0.58"
"02-003","Screening","0","2015-04-27","1","Serum","Calcium","mmol/L",2.35676167166617,"2.2","2.6"
"02-003","Screening","0","2015-04-27","1","Serum","Chloride","mmol/L",100.250031074837,"98","106"
"02-003","Screening","0","2015-04-27","1","Serum","Creatinine","μmol/L",111.797489945394,"61.9","115"
"02-003","Screening","0","2015-04-27","1","Serum","Direct Bilirubin","μmol/L",4.31540970133007,"0","5.1"
"02-003","Screening","0","2015-04-27","1","Serum","IgE","mg/L",0.0498166174036662,"0.1","0.4"
"02-003","Screening","0","2015-04-27","1","Serum","Magnesium","mmol/L",0.626318178296961,"0.62","0.99"
"02-003","Screening","0","2015-04-27","1","Blood","Platelet count","x 109/L",295.745946863046,"150","350"
"02-003","Screening","0","2015-04-27","1","Serum","Potassium","mmol/L",6.04044048937583,"3.5","5"
"02-003","Screening","0","2015-04-27","1","Blood","RBC count","x 1012 cells/L",6.1589702692616,"4.2","5.9"
"02-003","Screening","0","2015-04-27","1","Serum","Sodium","mmol/L",139.174604622671,"136","145"
"02-003","Screening","0","2015-04-27","1","Serum","Total Bilirubin","μmol/L",14.2659604573962,"5.1","20.5"
"02-003","Screening","0","2015-04-27","1","Blood","WBC count","x 109 cells/L",8.96251792123929,"4.5","11"
"02-003","Unscheduled 0.1","0.1","2015-05-05","9","Serum","Albumin","g/L",43.6526408815431,"35","55"
"02-003","Unscheduled 0.1","0.1","2015-05-05","9","Serum","Alkaline phosphatase (ALP)","μkat/L",1.67412382616821,"0.5","1.5"
"02-003","Unscheduled 0.1","0.1","2015-05-05","9","Serum","Aminotransferase, alanine (ALT)","pkat/L",0.179006089449627,"0","0.58"
"02-003","Unscheduled 0.1","0.1","2015-05-05","9","Serum","Aminotransferase, aspartate (AST)","pkat/L",0.414706370475423,"0","0.58"
"02-003","Unscheduled 0.1","0.1","2015-05-05","9","Serum","Calcium","mmol/L",2.61358426958038,"2.2","2.6"
"02-003","Unscheduled 0.1","0.1","2015-05-05","9","Serum","Chloride","mmol/L",100.066828548049,"98","106"
"02-003","Unscheduled 0.1","0.1","2015-05-05","9","Serum","Creatinine","μmol/L",30.2155597358872,"61.9","115"
"02-003","Unscheduled 0.1","0.1","2015-05-05","9","Serum","Direct Bilirubin","μmol/L",5.92832215422381,"0","5.1"
"02-003","Unscheduled 0.1","0.1","2015-05-05","9","Serum","IgE","mg/L",0.114987740846772,"0.1","0.4"
"02-003","Unscheduled 0.1","0.1","2015-05-05","9","Serum","Magnesium","mmol/L",0.749819601356401,"0.62","0.99"
"02-003","Unscheduled 0.1","0.1","2015-05-05","9","Blood","Platelet count","x 109/L",207.072679168902,"150","350"
"02-003","Unscheduled 0.1","0.1","2015-05-05","9","Serum","Potassium","mmol/L",,"3.5","5"
"02-003","Unscheduled 0.1","0.1","2015-05-05","9","Blood","RBC count","x 1012 cells/L",5.22970894276187,"4.2","5.9"
"02-003","Unscheduled 0.1","0.1","2015-05-05","9","Serum","Sodium","mmol/L",141.030232265546,"136","145"
"02-003","Unscheduled 0.1","0.1","2015-05-05","9","Serum","Total Bilirubin","μmol/L",16.4643856295329,"5.1","20.5"
"02-003","Unscheduled 0.1","0.1","2015-05-05","9","Blood","WBC count","x 109 cells/L",7.63758587521161,"4.5","11"
"02-003","Visit 1","1","2015-06-26","61","Serum","Albumin","g/L",36.5188484970655,"35","55"
"02-003","Visit 1","1","2015-06-26","61","Serum","Alkaline phosphatase (ALP)","μkat/L",1.68721178434996,"0.5","1.5"
"02-003","Visit 1","1","2015-06-26","61","Serum","Aminotransferase, alanine (ALT)","pkat/L",0.428085856183302,"0","0.58"
"02-003","Visit 1","1","2015-06-26","61","Serum","Aminotransferase, aspartate (AST)","pkat/L",0.377527726299771,"0","0.58"
"02-003","Visit 1","1","2015-06-26","61","Serum","Calcium","mmol/L",,"2.2","2.6"
"02-003","Visit 1","1","2015-06-26","61","Serum","Chloride","mmol/L",103.039195046151,"98","106"
"02-003","Visit 1","1","2015-06-26","61","Serum","Creatinine","μmol/L",90.8902527338676,"61.9","115"
"02-003","Visit 1","1","2015-06-26","61","Serum","Direct Bilirubin","μmol/L",6.15560157704232,"0","5.1"
"02-003","Visit 1","1","2015-06-26","61","Serum","IgE","mg/L",0.170475062766248,"0.1","0.4"
"02-003","Visit 1","1","2015-06-26","61","Serum","Magnesium","mmol/L",0.946489995259166,"0.62","0.99"
"02-003","Visit 1","1","2015-06-26","61","Blood","Platelet count","x 109/L",202.612877562341,"150","350"
"02-003","Visit 1","1","2015-06-26","61","Serum","Potassium","mmol/L",4.67924587552313,"3.5","5"
"02-003","Visit 1","1","2015-06-26","61","Blood","RBC count","x 1012 cells/L",5.63387117554259,"4.2","5.9"
"02-003","Visit 1","1","2015-06-26","61","Serum","Sodium","mmol/L",138.093025743531,"136","145"
"02-003","Visit 1","1","2015-06-26","61","Serum","Total Bilirubin","μmol/L",8.09935181274867,"5.1","20.5"
"02-003","Visit 1","1","2015-06-26","61","Blood","WBC count","x 109 cells/L",5.03775495049971,"4.5","11"
"02-003","Visit 2","2","2015-08-16","112","Serum","Albumin","g/L",38.3886205795254,"35","55"
"02-003","Visit 2","2","2015-08-16","112","Serum","Alkaline phosphatase (ALP)","μkat/L",1.22229501186091,"0.5","1.5"
"02-003","Visit 2","2","2015-08-16","112","Serum","Aminotransferase, alanine (ALT)","pkat/L",0.586514571732394,"0","0.58"
"02-003","Visit 2","2","2015-08-16","112","Serum","Aminotransferase, aspartate (AST)","pkat/L",,"0","0.58"
"02-003","Visit 2","2","2015-08-16","112","Serum","Calcium","mmol/L",2.53830160944035,"2.2","2.6"
"02-003","Visit 2","2","2015-08-16","112","Serum","Chloride","mmol/L",109.231160903887,"98","106"
"02-003","Visit 2","2","2015-08-16","112","Serum","Creatinine","μmol/L",65.8635086500162,"61.9","115"
"02-003","Visit 2","2","2015-08-16","112","Serum","Direct Bilirubin","μmol/L",1.67035820193783,"0","5.1"
"02-003","Visit 2","2","2015-08-16","112","Serum","IgE","mg/L",0,"0.1","0.4"
"02-003","Visit 2","2","2015-08-16","112","Serum","Magnesium","mmol/L",0.862595995226492,"0.62","0.99"
"02-003","Visit 2","2","2015-08-16","112","Blood","Platelet count","x 109/L",400.945575158385,"150","350"
"02-003","Visit 2","2","2015-08-16","112","Serum","Potassium","mmol/L",3.35201119735512,"3.5","5"
"02-003","Visit 2","2","2015-08-16","112","Blood","RBC count","x 1012 cells/L",5.24220603870012,"4.2","5.9"
"02-003","Visit 2","2","2015-08-16","112","Serum","Sodium","mmol/L",138.28796779516,"136","145"
"02-003","Visit 2","2","2015-08-16","112","Serum","Total Bilirubin","μmol/L",16.9545653205954,"5.1","20.5"
"02-003","Visit 2","2","2015-08-16","112","Blood","WBC count","x 109 cells/L",9.1920686778824,"4.5","11"
"02-003","Visit 3","3","2015-10-04","161","Serum","Albumin","g/L",26.2961551354497,"35","55"
"02-003","Visit 3","3","2015-10-04","161","Serum","Alkaline phosphatase (ALP)","μkat/L",0.620260491593793,"0.5","1.5"
"02-003","Visit 3","3","2015-10-04","161","Serum","Aminotransferase, alanine (ALT)","pkat/L",0.140503927984096,"0","0.58"
"02-003","Visit 3","3","2015-10-04","161","Serum","Aminotransferase, aspartate (AST)","pkat/L",0.087371522745869,"0","0.58"
"02-003","Visit 3","3","2015-10-04","161","Serum","Calcium","mmol/L",2.08233948079118,"2.2","2.6"
"02-003","Visit 3","3","2015-10-04","161","Serum","Chloride","mmol/L",,"98","106"
"02-003","Visit 3","3","2015-10-04","161","Serum","Creatinine","μmol/L",94.6336129009464,"61.9","115"
"02-003","Visit 3","3","2015-10-04","161","Serum","Direct Bilirubin","μmol/L",,"0","5.1"
"02-003","Visit 3","3","2015-10-04","161","Serum","IgE","mg/L",0.200926182319545,"0.1","0.4"
"02-003","Visit 3","3","2015-10-04","161","Serum","Magnesium","mmol/L",0.878176335234464,"0.62","0.99"
"02-003","Visit 3","3","2015-10-04","161","Blood","Platelet count","x 109/L",173.265864673561,"150","350"
"02-003","Visit 3","3","2015-10-04","161","Serum","Potassium","mmol/L",4.44457517580961,"3.5","5"
"02-003","Visit 3","3","2015-10-04","161","Blood","RBC count","x 1012 cells/L",6.98260728726815,"4.2","5.9"
"02-003","Visit 3","3","2015-10-04","161","Serum","Sodium","mmol/L",135.027978228317,"136","145"
"02-003","Visit 3","3","2015-10-04","161","Serum","Total Bilirubin","μmol/L",6.99564938284566,"5.1","20.5"
"02-003","Visit 3","3","2015-10-04","161","Blood","WBC count","x 109 cells/L",10.7252982749483,"4.5","11"
"02-005","Screening","0","2015-12-13","1","Serum","Albumin","g/L",20.575341286143,"35","55"
"02-005","Screening","0","2015-12-13","1","Serum","Alkaline phosphatase (ALP)","μkat/L",1.08157427156829,"0.5","1.5"
"02-005","Screening","0","2015-12-13","1","Serum","Aminotransferase, alanine (ALT)","pkat/L",0.34917309192262,"0","0.58"
"02-005","Screening","0","2015-12-13","1","Serum","Aminotransferase, aspartate (AST)","pkat/L",0,"0","0.58"
"02-005","Screening","0","2015-12-13","1","Serum","Calcium","mmol/L",2.22674863988882,"2.2","2.6"
"02-005","Screening","0","2015-12-13","1","Serum","Chloride","mmol/L",99.646240081009,"98","106"
"02-005","Screening","0","2015-12-13","1","Serum","Creatinine","μmol/L",62.6718954908198,"61.9","115"
"02-005","Screening","0","2015-12-13","1","Serum","Direct Bilirubin","μmol/L",4.28011088403387,"0","5.1"
"02-005","Screening","0","2015-12-13","1","Serum","IgE","mg/L",0.167657735367915,"0.1","0.4"
"02-005","Screening","0","2015-12-13","1","Serum","Magnesium","mmol/L",0.789219509673841,"0.62","0.99"
"02-005","Screening","0","2015-12-13","1","Blood","Platelet count","x 109/L",325.9757036382,"150","350"
"02-005","Screening","0","2015-12-13","1","Serum","Potassium","mmol/L",4.52609950257348,"3.5","5"
"02-005","Screening","0","2015-12-13","1","Blood","RBC count","x 1012 cells/L",,"4.2","5.9"
"02-005","Screening","0","2015-12-13","1","Serum","Sodium","mmol/L",138.624309435081,"136","145"
"02-005","Screening","0","2015-12-13","1","Serum","Total Bilirubin","μmol/L",21.0549420203004,"5.1","20.5"
"02-005","Screening","0","2015-12-13","1","Blood","WBC count","x 109 cells/L",6.98468478767652,"4.5","11"
"02-005","Visit 1","1","2016-02-10","60","Serum","Albumin","g/L",27.1987045223575,"35","55"
"02-005","Visit 1","1","2016-02-10","60","Serum","Alkaline phosphatase (ALP)","μkat/L",1.24362005895838,"0.5","1.5"
"02-005","Visit 1","1","2016-02-10","60","Serum","Aminotransferase, alanine (ALT)","pkat/L",0.552305060346511,"0","0.58"
"02-005","Visit 1","1","2016-02-10","60","Serum","Aminotransferase, aspartate (AST)","pkat/L",0.400289205439304,"0","0.58"
"02-005","Visit 1","1","2016-02-10","60","Serum","Calcium","mmol/L",,"2.2","2.6"
"02-005","Visit 1","1","2016-02-10","60","Serum","Chloride","mmol/L",110.236021802787,"98","106"
"02-005","Visit 1","1","2016-02-10","60","Serum","Creatinine","μmol/L",105.239623791853,"61.9","115"
"02-005","Visit 1","1","2016-02-10","60","Serum","Direct Bilirubin","μmol/L",0,"0","5.1"
"02-005","Visit 1","1","2016-02-10","60","Serum","IgE","mg/L",0.208129367995575,"0.1","0.4"
"02-005","Visit 1","1","2016-02-10","60","Serum","Magnesium","mmol/L",0.90948048922981,"0.62","0.99"
"02-005","Visit 1","1","2016-02-10","60","Blood","Platelet count","x 109/L",312.110260555734,"150","350"
"02-005","Visit 1","1","2016-02-10","60","Serum","Potassium","mmol/L",2.72634219075979,"3.5","5"
"02-005","Visit 1","1","2016-02-10","60","Blood","RBC count","x 1012 cells/L",4.66449239254353,"4.2","5.9"
"02-005","Visit 1","1","2016-02-10","60","Serum","Sodium","mmol/L",130.583936601213,"136","145"
"02-005","Visit 1","1","2016-02-10","60","Serum","Total Bilirubin","μmol/L",17.7544582411547,"5.1","20.5"
"02-005","Visit 1","1","2016-02-10","60","Blood","WBC count","x 109 cells/L",9.53861191416938,"4.5","11"
"02-005","Visit 2","2","2016-04-06","116","Serum","Albumin","g/L",39.813995588792,"35","55"
"02-005","Visit 2","2","2016-04-06","116","Serum","Alkaline phosphatase (ALP)","μkat/L",0.770369878776566,"0.5","1.5"
"02-005","Visit 2","2","2016-04-06","116","Serum","Aminotransferase, alanine (ALT)","pkat/L",0.341146442620385,"0","0.58"
"02-005","Visit 2","2","2016-04-06","116","Serum","Aminotransferase, aspartate (AST)","pkat/L",,"0","0.58"
"02-005","Visit 2","2","2016-04-06","116","Serum","Calcium","mmol/L",2.5984499058757,"2.2","2.6"
"02-005","Visit 2","2","2016-04-06","116","Serum","Chloride","mmol/L",97.6642247698659,"98","106"
"02-005","Visit 2","2","2016-04-06","116","Serum","Creatinine","μmol/L",53.4167946086062,"61.9","115"
"02-005","Visit 2","2","2016-04-06","116","Serum","Direct Bilirubin","μmol/L",1.4818456071656,"0","5.1"
"02-005","Visit 2","2","2016-04-06","116","Serum","IgE","mg/L",0.335064636656688,"0.1","0.4"
"02-005","Visit 2","2","2016-04-06","116","Serum","Magnesium","mmol/L",0.657338510209346,"0.62","0.99"
"02-005","Visit 2","2","2016-04-06","116","Blood","Platelet count","x 109/L",386.486845046825,"150","350"
"02-005","Visit 2","2","2016-04-06","116","Serum","Potassium","mmol/L",3.84395671969982,"3.5","5"
"02-005","Visit 2","2","2016-04-06","116","Blood","RBC count","x 1012 cells/L",4.34713476461275,"4.2","5.9"
"02-005","Visit 2","2","2016-04-06","116","Serum","Sodium","mmol/L",140.619751604661,"136","145"
"02-005","Visit 2","2","2016-04-06","116","Serum","Total Bilirubin","μmol/L",15.9552293580063,"5.1","20.5"
"02-005","Visit 2","2","2016-04-06","116","Blood","WBC count","x 109 cells/L",11.2000032460792,"4.5","11"
"02-005","Visit 3","3","2016-05-21","161","Serum","Albumin","g/L",43.6787772171662,"35","55"
"02-005","Visit 3","3","2016-05-21","161","Serum","Alkaline phosphatase (ALP)","μkat/L",1.65605816072956,"0.5","1.5"
"02-005","Visit 3","3","2016-05-21","161","Serum","Aminotransferase, alanine (ALT)","pkat/L",0.456046324434912,"0","0.58"
"02-005","Visit 3","3","2016-05-21","161","Serum","Aminotransferase, aspartate (AST)","pkat/L",0.488332136671816,"0","0.58"
"02-005","Visit 3","3","2016-05-21","161","Serum","Calcium","mmol/L",2.54044193274487,"2.2","2.6"
"02-005","Visit 3","3","2016-05-21","161","Serum","Chloride","mmol/L",,"98","106"
"02-005","Visit 3","3","2016-05-21","161","Serum","Creatinine","μmol/L",72.1152035586033,"61.9","115"
"02-005","Visit 3","3","2016-05-21","161","Serum","Direct Bilirubin","μmol/L",2.00661556564758,"0","5.1"
"02-005","Visit 3","3","2016-05-21","161","Serum","IgE","mg/L",0.263488619604255,"0.1","0.4"
"02-005","Visit 3","3","2016-05-21","161","Serum","Magnesium","mmol/L",0.922754278886995,"0.62","0.99"
"02-005","Visit 3","3","2016-05-21","161","Blood","Platelet count","x 109/L",104.761804240849,"150","350"
"02-005","Visit 3","3","2016-05-21","161","Serum","Potassium","mmol/L",4.93641243598901,"3.5","5"
"02-005","Visit 3","3","2016-05-21","161","Blood","RBC count","x 1012 cells/L",4.23703486609121,"4.2","5.9"
"02-005","Visit 3","3","2016-05-21","161","Serum","Sodium","mmol/L",136.787807208506,"136","145"
"02-005","Visit 3","3","2016-05-21","161","Serum","Total Bilirubin","μmol/L",12.54776537057,"5.1","20.5"
"02-005","Visit 3","3","2016-05-21","161","Blood","WBC count","x 109 cells/L",6.08440382359349,"4.5","11"
"02-005","Visit 4","4","2016-07-16","217","Serum","Albumin","g/L",47.623840991689,"35","55"
"02-005","Visit 4","4","2016-07-16","217","Serum","Alkaline phosphatase (ALP)","μkat/L",,"0.5","1.5"
"02-005","Visit 4","4","2016-07-16","217","Serum","Aminotransferase, alanine (ALT)","pkat/L",,"0","0.58"
"02-005","Visit 4","4","2016-07-16","217","Serum","Aminotransferase, aspartate (AST)","pkat/L",0.395500905763422,"0","0.58"
"02-005","Visit 4","4","2016-07-16","217","Serum","Calcium","mmol/L",2.50385515274255,"2.2","2.6"
"02-005","Visit 4","4","2016-07-16","217","Serum","Chloride","mmol/L",99.7717778016579,"98","106"
"02-005","Visit 4","4","2016-07-16","217","Serum","Creatinine","μmol/L",79.6338191468777,"61.9","115"
"02-005","Visit 4","4","2016-07-16","217","Serum","Direct Bilirubin","μmol/L",0.616201074639579,"0","5.1"
"02-005","Visit 4","4","2016-07-16","217","Serum","IgE","mg/L",0.402715589018757,"0.1","0.4"
"02-005","Visit 4","4","2016-07-16","217","Serum","Magnesium","mmol/L",0.730552887648048,"0.62","0.99"
"02-005","Visit 4","4","2016-07-16","217","Blood","Platelet count","x 109/L",,"150","350"
"02-005","Visit 4","4","2016-07-16","217","Serum","Potassium","mmol/L",3.99916504559446,"3.5","5"
"02-005","Visit 4","4","2016-07-16","217","Blood","RBC count","x 1012 cells/L",,"4.2","5.9"
"02-005","Visit 4","4","2016-07-16","217","Serum","Sodium","mmol/L",,"136","145"
"02-005","Visit 4","4","2016-07-16","217","Serum","Total Bilirubin","μmol/L",7.32929891476004,"5.1","20.5"
"02-005","Visit 4","4","2016-07-16","217","Blood","WBC count","x 109 cells/L",,"4.5","11"
"02-005","Early Termination","6.9","2016-07-21","222","Serum","Albumin","g/L",44.3836699521016,"35","55"
"02-005","Early Termination","6.9","2016-07-21","222","Serum","Alkaline phosphatase (ALP)","μkat/L",0.368583774542253,"0.5","1.5"
"02-005","Early Termination","6.9","2016-07-21","222","Serum","Aminotransferase, alanine (ALT)","pkat/L",0.666305035940544,"0","0.58"
"02-005","Early Termination","6.9","2016-07-21","222","Serum","Aminotransferase, aspartate (AST)","pkat/L",0.148798424584232,"0","0.58"
"02-005","Early Termination","6.9","2016-07-21","222","Serum","Calcium","mmol/L",2.32057060663718,"2.2","2.6"
"02-005","Early Termination","6.9","2016-07-21","222","Serum","Chloride","mmol/L",104.7271412993,"98","106"
"02-005","Early Termination","6.9","2016-07-21","222","Serum","Creatinine","μmol/L",78.7782751160186,"61.9","115"
"02-005","Early Termination","6.9","2016-07-21","222","Serum","Direct Bilirubin","μmol/L",2.76323468371361,"0","5.1"
"02-005","Early Termination","6.9","2016-07-21","222","Serum","IgE","mg/L",0.102049172422383,"0.1","0.4"
"02-005","Early Termination","6.9","2016-07-21","222","Serum","Magnesium","mmol/L",0.782556879169553,"0.62","0.99"
"02-005","Early Termination","6.9","2016-07-21","222","Blood","Platelet count","x 109/L",86.0263588047306,"150","350"
"02-005","Early Termination","6.9","2016-07-21","222","Serum","Potassium","mmol/L",4.75748428163487,"3.5","5"
"02-005","Early Termination","6.9","2016-07-21","222","Blood","RBC count","x 1012 cells/L",5.82647672003446,"4.2","5.9"
"02-005","Early Termination","6.9","2016-07-21","222","Serum","Sodium","mmol/L",136.51865969026,"136","145"
"02-005","Early Termination","6.9","2016-07-21","222","Serum","Total Bilirubin","μmol/L",15.9681601692458,"5.1","20.5"
"02-005","Early Termination","6.9","2016-07-21","222","Blood","WBC count","x 109 cells/L",8.92172550116088,"4.5","11"
"02-006","Screening","0","2015-06-03","1","Serum","Albumin","g/L",38.9631742192106,"35","55"
"02-006","Screening","0","2015-06-03","1","Serum","Alkaline phosphatase (ALP)","μkat/L",1.46049686238705,"0.5","1.5"
"02-006","Screening","0","2015-06-03","1","Serum","Aminotransferase, alanine (ALT)","pkat/L",0.488975577635524,"0","0.58"
"02-006","Screening","0","2015-06-03","1","Serum","Aminotransferase, aspartate (AST)","pkat/L",0,"0","0.58"
"02-006","Screening","0","2015-06-03","1","Serum","Calcium","mmol/L",2.43962512793985,"2.2","2.6"
"02-006","Screening","0","2015-06-03","1","Serum","Chloride","mmol/L",102.356309320561,"98","106"
"02-006","Screening","0","2015-06-03","1","Serum","Creatinine","μmol/L",100.899598506059,"61.9","115"
"02-006","Screening","0","2015-06-03","1","Serum","Direct Bilirubin","μmol/L",,"0","5.1"
"02-006","Screening","0","2015-06-03","1","Serum","IgE","mg/L",0,"0.1","0.4"
"02-006","Screening","0","2015-06-03","1","Serum","Magnesium","mmol/L",0.434464947969006,"0.62","0.99"
"02-006","Screening","0","2015-06-03","1","Blood","Platelet count","x 109/L",99.1220930128358,"150","350"
"02-006","Screening","0","2015-06-03","1","Serum","Potassium","mmol/L",4.23823721392761,"3.5","5"
"02-006","Screening","0","2015-06-03","1","Blood","RBC count","x 1012 cells/L",5.66170414003191,"4.2","5.9"
"02-006","Screening","0","2015-06-03","1","Serum","Sodium","mmol/L",140.639686477697,"136","145"
"02-006","Screening","0","2015-06-03","1","Serum","Total Bilirubin","μmol/L",3.42735761989187,"5.1","20.5"
"02-006","Screening","0","2015-06-03","1","Blood","WBC count","x 109 cells/L",9.18970201010833,"4.5","11"
"02-006","Visit 1","1","2015-08-01","60","Serum","Albumin","g/L",48.3072991489099,"35","55"
"02-006","Visit 1","1","2015-08-01","60","Serum","Alkaline phosphatase (ALP)","μkat/L",1.05327879556778,"0.5","1.5"
"02-006","Visit 1","1","2015-08-01","60","Serum","Aminotransferase, alanine (ALT)","pkat/L",0.875886184031109,"0","0.58"
"02-006","Visit 1","1","2015-08-01","60","Serum","Aminotransferase, aspartate (AST)","pkat/L",0.162852964553676,"0","0.58"
"02-006","Visit 1","1","2015-08-01","60","Serum","Calcium","mmol/L",,"2.2","2.6"
"02-006","Visit 1","1","2015-08-01","60","Serum","Chloride","mmol/L",106.565394283122,"98","106"
"02-006","Visit 1","1","2015-08-01","60","Serum","Creatinine","μmol/L",47.2145897685547,"61.9","115"
"02-006","Visit 1","1","2015-08-01","60","Serum","Direct Bilirubin","μmol/L",0.652608224736728,"0","5.1"
"02-006","Visit 1","1","2015-08-01","60","Serum","IgE","mg/L",0.471656679454187,"0.1","0.4"
"02-006","Visit 1","1","2015-08-01","60","Serum","Magnesium","mmol/L",0.513939472854,"0.62","0.99"
"02-006","Visit 1","1","2015-08-01","60","Blood","Platelet count","x 109/L",225.202661959025,"150","350"
"02-006","Visit 1","1","2015-08-01","60","Serum","Potassium","mmol/L",3.5734234671911,"3.5","5"
"02-006","Visit 1","1","2015-08-01","60","Blood","RBC count","x 1012 cells/L",4.20302524353698,"4.2","5.9"
"02-006","Visit 1","1","2015-08-01","60","Serum","Sodium","mmol/L",145.774542688809,"136","145"
"02-006","Visit 1","1","2015-08-01","60","Serum","Total Bilirubin","μmol/L",4.96987729330199,"5.1","20.5"
"02-006","Visit 1","1","2015-08-01","60","Blood","WBC count","x 109 cells/L",9.86417229036591,"4.5","11"
"02-006","Early Termination","6.9","2015-09-18","108","Serum","Albumin","g/L",43.7104780342874,"35","55"
"02-006","Early Termination","6.9","2015-09-18","108","Serum","Alkaline phosphatase (ALP)","μkat/L",1.71430918269949,"0.5","1.5"
"02-006","Early Termination","6.9","2015-09-18","108","Serum","Aminotransferase, alanine (ALT)","pkat/L",0.11659099565483,"0","0.58"
"02-006","Early Termination","6.9","2015-09-18","108","Serum","Aminotransferase, aspartate (AST)","pkat/L",0.436266091634598,"0","0.58"
"02-006","Early Termination","6.9","2015-09-18","108","Serum","Calcium","mmol/L",2.73095096823452,"2.2","2.6"
"02-006","Early Termination","6.9","2015-09-18","108","Serum","Chloride","mmol/L",96.4357594573953,"98","106"
"02-006","Early Termination","6.9","2015-09-18","108","Serum","Creatinine","μmol/L",94.3175927775865,"61.9","115"
"02-006","Early Termination","6.9","2015-09-18","108","Serum","Direct Bilirubin","μmol/L",1.75927662484752,"0","5.1"
"02-006","Early Termination","6.9","2015-09-18","108","Serum","IgE","mg/L",0.322112903534465,"0.1","0.4"
"02-006","Early Termination","6.9","2015-09-18","108","Serum","Magnesium","mmol/L",1.16094263774838,"0.62","0.99"
"02-006","Early Termination","6.9","2015-09-18","108","Blood","Platelet count","x 109/L",302.937546946691,"150","350"
"02-006","Early Termination","6.9","2015-09-18","108","Serum","Potassium","mmol/L",4.57182580050372,"3.5","5"
"02-006","Early Termination","6.9","2015-09-18","108","Blood","RBC count","x 1012 cells/L",5.14737630591812,"4.2","5.9"
"02-006","Early Termination","6.9","2015-09-18","108","Serum","Sodium","mmol/L",140.190757184782,"136","145"
"02-006","Early Termination","6.9","2015-09-18","108","Serum","Total Bilirubin","μmol/L",4.00317946335669,"5.1","20.5"
"02-006","Early Termination","6.9","2015-09-18","108","Blood","WBC count","x 109 cells/L",10.2267121883929,"4.5","11"
"02-008","Screening","0","2015-08-17","1","Serum","Albumin","g/L",40.865213400541,"35","55"
"02-008","Screening","0","2015-08-17","1","Serum","Alkaline phosphatase (ALP)","μkat/L",0.964164308598625,"0.5","1.5"
"02-008","Screening","0","2015-08-17","1","Serum","Aminotransferase, alanine (ALT)","pkat/L",0.435611679427137,"0","0.58"
"02-008","Screening","0","2015-08-17","1","Serum","Aminotransferase, aspartate (AST)","pkat/L",0.505315293544851,"0","0.58"
"02-008","Screening","0","2015-08-17","1","Serum","Calcium","mmol/L",2.30366182330867,"2.2","2.6"
"02-008","Screening","0","2015-08-17","1","Serum","Chloride","mmol/L",93.3782957405226,"98","106"
"02-008","Screening","0","2015-08-17","1","Serum","Creatinine","μmol/L",105.032092082774,"61.9","115"
"02-008","Screening","0","2015-08-17","1","Serum","Direct Bilirubin","μmol/L",0,"0","5.1"
"02-008","Screening","0","2015-08-17","1","Serum","IgE","mg/L",0.238499624017753,"0.1","0.4"
"02-008","Screening","0","2015-08-17","1","Serum","Magnesium","mmol/L",1.01311279767557,"0.62","0.99"
"02-008","Screening","0","2015-08-17","1","Blood","Platelet count","x 109/L",232.136130929661,"150","350"
"02-008","Screening","0","2015-08-17","1","Serum","Potassium","mmol/L",5.17057230187681,"3.5","5"
"02-008","Screening","0","2015-08-17","1","Blood","RBC count","x 1012 cells/L",6.34283981949557,"4.2","5.9"
"02-008","Screening","0","2015-08-17","1","Serum","Sodium","mmol/L",139.145785098661,"136","145"
"02-008","Screening","0","2015-08-17","1","Serum","Total Bilirubin","μmol/L",28.9085147145396,"5.1","20.5"
"02-008","Screening","0","2015-08-17","1","Blood","WBC count","x 109 cells/L",4.99537811613235,"4.5","11"
"02-008","Visit 1","1","2015-10-12","57","Serum","Albumin","g/L",47.2688788774086,"35","55"
"02-008","Visit 1","1","2015-10-12","57","Serum","Alkaline phosphatase (ALP)","μkat/L",0.298625229302127,"0.5","1.5"
"02-008","Visit 1","1","2015-10-12","57","Serum","Aminotransferase, alanine (ALT)","pkat/L",0.230129610322725,"0","0.58"
"02-008","Visit 1","1","2015-10-12","57","Serum","Aminotransferase, aspartate (AST)","pkat/L",0.40234520407289,"0","0.58"
"02-008","Visit 1","1","2015-10-12","57","Serum","Calcium","mmol/L",,"2.2","2.6"
"02-008","Visit 1","1","2015-10-12","57","Serum","Chloride","mmol/L",110.084987545355,"98","106"
"02-008","Visit 1","1","2015-10-12","57","Serum","Creatinine","μmol/L",61.8340446911405,"61.9","115"
"02-008","Visit 1","1","2015-10-12","57","Serum","Direct Bilirubin","μmol/L",0,"0","5.1"
"02-008","Visit 1","1","2015-10-12","57","Serum","IgE","mg/L",0.280017350456171,"0.1","0.4"
"02-008","Visit 1","1","2015-10-12","57","Serum","Magnesium","mmol/L",0.880535083946092,"0.62","0.99"
"02-008","Visit 1","1","2015-10-12","57","Blood","Platelet count","x 109/L",285.049194193226,"150","350"
"02-008","Visit 1","1","2015-10-12","57","Serum","Potassium","mmol/L",3.2814306058427,"3.5","5"
"02-008","Visit 1","1","2015-10-12","57","Blood","RBC count","x 1012 cells/L",4.81333691198106,"4.2","5.9"
"02-008","Visit 1","1","2015-10-12","57","Serum","Sodium","mmol/L",139.880437627297,"136","145"
"02-008","Visit 1","1","2015-10-12","57","Serum","Total Bilirubin","μmol/L",0.621807630478486,"5.1","20.5"
"02-008","Visit 1","1","2015-10-12","57","Blood","WBC count","x 109 cells/L",10.7052797214841,"4.5","11"
"02-008","Visit 2","2","2015-12-04","110","Serum","Albumin","g/L",51.7153375799739,"35","55"
"02-008","Visit 2","2","2015-12-04","110","Serum","Alkaline phosphatase (ALP)","μkat/L",0.736898825734784,"0.5","1.5"
"02-008","Visit 2","2","2015-12-04","110","Serum","Aminotransferase, alanine (ALT)","pkat/L",0.826838145585343,"0","0.58"
"02-008","Visit 2","2","2015-12-04","110","Serum","Aminotransferase, aspartate (AST)","pkat/L",,"0","0.58"
"02-008","Visit 2","2","2015-12-04","110","Serum","Calcium","mmol/L",2.41774129443529,"2.2","2.6"
"02-008","Visit 2","2","2015-12-04","110","Serum","Chloride","mmol/L",91.8222276011057,"98","106"
"02-008","Visit 2","2","2015-12-04","110","Serum","Creatinine","μmol/L",80.2800837865744,"61.9","115"
"02-008","Visit 2","2","2015-12-04","110","Serum","Direct Bilirubin","μmol/L",3.75476006194324,"0","5.1"
"02-008","Visit 2","2","2015-12-04","110","Serum","IgE","mg/L",0.209990847544022,"0.1","0.4"
"02-008","Visit 2","2","2015-12-04","110","Serum","Magnesium","mmol/L",0.793943729456402,"0.62","0.99"
"02-008","Visit 2","2","2015-12-04","110","Blood","Platelet count","x 109/L",312.317413355847,"150","350"
"02-008","Visit 2","2","2015-12-04","110","Serum","Potassium","mmol/L",3.35056002560732,"3.5","5"
"02-008","Visit 2","2","2015-12-04","110","Blood","RBC count","x 1012 cells/L",5.48589407446262,"4.2","5.9"
"02-008","Visit 2","2","2015-12-04","110","Serum","Sodium","mmol/L",137.99313972074,"136","145"
"02-008","Visit 2","2","2015-12-04","110","Serum","Total Bilirubin","μmol/L",15.1796789439639,"5.1","20.5"
"02-008","Visit 2","2","2015-12-04","110","Blood","WBC count","x 109 cells/L",7.89181083756258,"4.5","11"
"02-008","Visit 3","3","2016-02-04","172","Serum","Albumin","g/L",47.3749336213314,"35","55"
"02-008","Visit 3","3","2016-02-04","172","Serum","Alkaline phosphatase (ALP)","μkat/L",0.541534407010547,"0.5","1.5"
"02-008","Visit 3","3","2016-02-04","172","Serum","Aminotransferase, alanine (ALT)","pkat/L",0.104324817507446,"0","0.58"
"02-008","Visit 3","3","2016-02-04","172","Serum","Aminotransferase, aspartate (AST)","pkat/L",0.492145397644219,"0","0.58"
"02-008","Visit 3","3","2016-02-04","172","Serum","Calcium","mmol/L",2.40530579170272,"2.2","2.6"
"02-008","Visit 3","3","2016-02-04","172","Serum","Chloride","mmol/L",,"98","106"
"02-008","Visit 3","3","2016-02-04","172","Serum","Creatinine","μmol/L",64.985018368855,"61.9","115"
"02-008","Visit 3","3","2016-02-04","172","Serum","Direct Bilirubin","μmol/L",3.50684777581685,"0","5.1"
"02-008","Visit 3","3","2016-02-04","172","Serum","IgE","mg/L",0.082303513057312,"0.1","0.4"
"02-008","Visit 3","3","2016-02-04","172","Serum","Magnesium","mmol/L",0.887169986714667,"0.62","0.99"
"02-008","Visit 3","3","2016-02-04","172","Blood","Platelet count","x 109/L",210.166416083716,"150","350"
"02-008","Visit 3","3","2016-02-04","172","Serum","Potassium","mmol/L",3.24698589872898,"3.5","5"
"02-008","Visit 3","3","2016-02-04","172","Blood","RBC count","x 1012 cells/L",5.44392992687778,"4.2","5.9"
"02-008","Visit 3","3","2016-02-04","172","Serum","Sodium","mmol/L",144.100773405412,"136","145"
"02-008","Visit 3","3","2016-02-04","172","Serum","Total Bilirubin","μmol/L",5.34722878453462,"5.1","20.5"
"02-008","Visit 3","3","2016-02-04","172","Blood","WBC count","x 109 cells/L",0,"4.5","11"
"02-008","Unscheduled 3.1","3.1","2016-02-12","180","Serum","Albumin","g/L",53.7133326375059,"35","55"
"02-008","Unscheduled 3.1","3.1","2016-02-12","180","Serum","Alkaline phosphatase (ALP)","μkat/L",0.308210052531164,"0.5","1.5"
"02-008","Unscheduled 3.1","3.1","2016-02-12","180","Serum","Aminotransferase, alanine (ALT)","pkat/L",0.304830421598649,"0","0.58"
"02-008","Unscheduled 3.1","3.1","2016-02-12","180","Serum","Aminotransferase, aspartate (AST)","pkat/L",0.337978422477661,"0","0.58"
"02-008","Unscheduled 3.1","3.1","2016-02-12","180","Serum","Calcium","mmol/L",2.53261335002895,"2.2","2.6"
"02-008","Unscheduled 3.1","3.1","2016-02-12","180","Serum","Chloride","mmol/L",103.839763766183,"98","106"
"02-008","Unscheduled 3.1","3.1","2016-02-12","180","Serum","Creatinine","μmol/L",66.7395661312102,"61.9","115"
"02-008","Unscheduled 3.1","3.1","2016-02-12","180","Serum","Direct Bilirubin","μmol/L",4.06557936083625,"0","5.1"
"02-008","Unscheduled 3.1","3.1","2016-02-12","180","Serum","IgE","mg/L",0.376068266894696,"0.1","0.4"
"02-008","Unscheduled 3.1","3.1","2016-02-12","180","Serum","Magnesium","mmol/L",0.904929814876173,"0.62","0.99"
"02-008","Unscheduled 3.1","3.1","2016-02-12","180","Blood","Platelet count","x 109/L",281.553566026061,"150","350"
"02-008","Unscheduled 3.1","3.1","2016-02-12","180","Serum","Potassium","mmol/L",4.75995817366183,"3.5","5"
"02-008","Unscheduled 3.1","3.1","2016-02-12","180","Blood","RBC count","x 1012 cells/L",5.92885339412625,"4.2","5.9"
"02-008","Unscheduled 3.1","3.1","2016-02-12","180","Serum","Sodium","mmol/L",142.945839934787,"136","145"
"02-008","Unscheduled 3.1","3.1","2016-02-12","180","Serum","Total Bilirubin","μmol/L",10.8762914441126,"5.1","20.5"
"02-008","Unscheduled 3.1","3.1","2016-02-12","180","Blood","WBC count","x 109 cells/L",9.1249431316962,"4.5","11"
"02-008","Visit 4","4","2016-04-03","231","Serum","Albumin","g/L",72.5731392598045,"35","55"
"02-008","Visit 4","4","2016-04-03","231","Serum","Alkaline phosphatase (ALP)","μkat/L",,"0.5","1.5"
"02-008","Visit 4","4","2016-04-03","231","Serum","Aminotransferase, alanine (ALT)","pkat/L",,"0","0.58"
"02-008","Visit 4","4","2016-04-03","231","Serum","Aminotransferase, aspartate (AST)","pkat/L",0.332249527141965,"0","0.58"
"02-008","Visit 4","4","2016-04-03","231","Serum","Calcium","mmol/L",2.23819858447604,"2.2","2.6"
"02-008","Visit 4","4","2016-04-03","231","Serum","Chloride","mmol/L",96.335744334844,"98","106"
"02-008","Visit 4","4","2016-04-03","231","Serum","Creatinine","μmol/L",108.925045772891,"61.9","115"
"02-008","Visit 4","4","2016-04-03","231","Serum","Direct Bilirubin","μmol/L",1.75469821247406,"0","5.1"
"02-008","Visit 4","4","2016-04-03","231","Serum","IgE","mg/L",0.3514648170459,"0.1","0.4"
"02-008","Visit 4","4","2016-04-03","231","Serum","Magnesium","mmol/L",0.704894205965805,"0.62","0.99"
"02-008","Visit 4","4","2016-04-03","231","Blood","Platelet count","x 109/L",,"150","350"
"02-008","Visit 4","4","2016-04-03","231","Serum","Potassium","mmol/L",3.26035953446611,"3.5","5"
"02-008","Visit 4","4","2016-04-03","231","Blood","RBC count","x 1012 cells/L",,"4.2","5.9"
"02-008","Visit 4","4","2016-04-03","231","Serum","Sodium","mmol/L",,"136","145"
"02-008","Visit 4","4","2016-04-03","231","Serum","Total Bilirubin","μmol/L",9.73249540714938,"5.1","20.5"
"02-008","Visit 4","4","2016-04-03","231","Blood","WBC count","x 109 cells/L",,"4.5","11"
"02-008","Visit 5","5","2016-05-15","273","Serum","Albumin","g/L",55.8147485368523,"35","55"
"02-008","Visit 5","5","2016-05-15","273","Serum","Alkaline phosphatase (ALP)","μkat/L",0.932433568339913,"0.5","1.5"
"02-008","Visit 5","5","2016-05-15","273","Serum","Aminotransferase, alanine (ALT)","pkat/L",0.129288291328765,"0","0.58"
"02-008","Visit 5","5","2016-05-15","273","Serum","Aminotransferase, aspartate (AST)","pkat/L",0,"0","0.58"
"02-008","Visit 5","5","2016-05-15","273","Serum","Calcium","mmol/L",2.51985748792093,"2.2","2.6"
"02-008","Visit 5","5","2016-05-15","273","Serum","Chloride","mmol/L",,"98","106"
"02-008","Visit 5","5","2016-05-15","273","Serum","Creatinine","μmol/L",88.3464513025582,"61.9","115"
"02-008","Visit 5","5","2016-05-15","273","Serum","Direct Bilirubin","μmol/L",7.71734290317654,"0","5.1"
"02-008","Visit 5","5","2016-05-15","273","Serum","IgE","mg/L",0.249199250460445,"0.1","0.4"
"02-008","Visit 5","5","2016-05-15","273","Serum","Magnesium","mmol/L",0.822218724357892,"0.62","0.99"
"02-008","Visit 5","5","2016-05-15","273","Blood","Platelet count","x 109/L",516.612375062733,"150","350"
"02-008","Visit 5","5","2016-05-15","273","Serum","Potassium","mmol/L",4.56962547116951,"3.5","5"
"02-008","Visit 5","5","2016-05-15","273","Blood","RBC count","x 1012 cells/L",4.08766263348818,"4.2","5.9"
"02-008","Visit 5","5","2016-05-15","273","Serum","Sodium","mmol/L",146.499700216214,"136","145"
"02-008","Visit 5","5","2016-05-15","273","Serum","Total Bilirubin","μmol/L",1.17298384643621,"5.1","20.5"
"02-008","Visit 5","5","2016-05-15","273","Blood","WBC count","x 109 cells/L",10.5530667480224,"4.5","11"
"02-008","Visit 6","6","2016-07-11","330","Serum","Albumin","g/L",38.8490398430063,"35","55"
"02-008","Visit 6","6","2016-07-11","330","Serum","Alkaline phosphatase (ALP)","μkat/L",0.796793131577618,"0.5","1.5"
"02-008","Visit 6","6","2016-07-11","330","Serum","Aminotransferase, alanine (ALT)","pkat/L",0.0760175279250427,"0","0.58"
"02-008","Visit 6","6","2016-07-11","330","Serum","Aminotransferase, aspartate (AST)","pkat/L",0.0377946103406884,"0","0.58"
"02-008","Visit 6","6","2016-07-11","330","Serum","Calcium","mmol/L",,"2.2","2.6"
"02-008","Visit 6","6","2016-07-11","330","Serum","Chloride","mmol/L",98.8847228751181,"98","106"
"02-008","Visit 6","6","2016-07-11","330","Serum","Creatinine","μmol/L",46.8412895320968,"61.9","115"
"02-008","Visit 6","6","2016-07-11","330","Serum","Direct Bilirubin","μmol/L",5.88914959864219,"0","5.1"
"02-008","Visit 6","6","2016-07-11","330","Serum","IgE","mg/L",0.361699270549626,"0.1","0.4"
"02-008","Visit 6","6","2016-07-11","330","Serum","Magnesium","mmol/L",0.618894517415249,"0.62","0.99"
"02-008","Visit 6","6","2016-07-11","330","Blood","Platelet count","x 109/L",307.497902595624,"150","350"
"02-008","Visit 6","6","2016-07-11","330","Serum","Potassium","mmol/L",5.1482611110451,"3.5","5"
"02-008","Visit 6","6","2016-07-11","330","Blood","RBC count","x 1012 cells/L",5.9238035251794,"4.2","5.9"
"02-008","Visit 6","6","2016-07-11","330","Serum","Sodium","mmol/L",134.210852428714,"136","145"
"02-008","Visit 6","6","2016-07-11","330","Serum","Total Bilirubin","μmol/L",37.6566718302462,"5.1","20.5"
"02-008","Visit 6","6","2016-07-11","330","Blood","WBC count","x 109 cells/L",2.26915428661142,"4.5","11"
"02-008","Unscheduled 6.1","6.1","2016-07-19","338","Serum","Albumin","g/L",50.6241859636159,"35","55"
"02-008","Unscheduled 6.1","6.1","2016-07-19","338","Serum","Alkaline phosphatase (ALP)","μkat/L",1.79648726257251,"0.5","1.5"
"02-008","Unscheduled 6.1","6.1","2016-07-19","338","Serum","Aminotransferase, alanine (ALT)","pkat/L",0.274166681222921,"0","0.58"
"02-008","Unscheduled 6.1","6.1","2016-07-19","338","Serum","Aminotransferase, aspartate (AST)","pkat/L",0.296020583479628,"0","0.58"
"02-008","Unscheduled 6.1","6.1","2016-07-19","338","Serum","Calcium","mmol/L",2.68570060993256,"2.2","2.6"
"02-008","Unscheduled 6.1","6.1","2016-07-19","338","Serum","Chloride","mmol/L",97.7521967858012,"98","106"
"02-008","Unscheduled 6.1","6.1","2016-07-19","338","Serum","Creatinine","μmol/L",74.1021727901269,"61.9","115"
"02-008","Unscheduled 6.1","6.1","2016-07-19","338","Serum","Direct Bilirubin","μmol/L",4.69804038864422,"0","5.1"
"02-008","Unscheduled 6.1","6.1","2016-07-19","338","Serum","IgE","mg/L",0.233041549528061,"0.1","0.4"
"02-008","Unscheduled 6.1","6.1","2016-07-19","338","Serum","Magnesium","mmol/L",0.834661946797721,"0.62","0.99"
"02-008","Unscheduled 6.1","6.1","2016-07-19","338","Blood","Platelet count","x 109/L",178.514420492356,"150","350"
"02-008","Unscheduled 6.1","6.1","2016-07-19","338","Serum","Potassium","mmol/L",,"3.5","5"
"02-008","Unscheduled 6.1","6.1","2016-07-19","338","Blood","RBC count","x 1012 cells/L",7.1131618341236,"4.2","5.9"
"02-008","Unscheduled 6.1","6.1","2016-07-19","338","Serum","Sodium","mmol/L",142.788810640392,"136","145"
"02-008","Unscheduled 6.1","6.1","2016-07-19","338","Serum","Total Bilirubin","μmol/L",18.5300226715546,"5.1","20.5"
"02-008","Unscheduled 6.1","6.1","2016-07-19","338","Blood","WBC count","x 109 cells/L",4.30760008495362,"4.5","11"
"02-008","End of Study","7","2016-08-14","364","Serum","Albumin","g/L",45.6410396934651,"35","55"
"02-008","End of Study","7","2016-08-14","364","Serum","Alkaline phosphatase (ALP)","μkat/L",1.439774333959,"0.5","1.5"
"02-008","End of Study","7","2016-08-14","364","Serum","Aminotransferase, alanine (ALT)","pkat/L",0.353991148948681,"0","0.58"
"02-008","End of Study","7","2016-08-14","364","Serum","Aminotransferase, aspartate (AST)","pkat/L",0.560880784234838,"0","0.58"
"02-008","End of Study","7","2016-08-14","364","Serum","Calcium","mmol/L",2.2581679358571,"2.2","2.6"
"02-008","End of Study","7","2016-08-14","364","Serum","Chloride","mmol/L",,"98","106"
"02-008","End of Study","7","2016-08-14","364","Serum","Creatinine","μmol/L",73.2435779060656,"61.9","115"
"02-008","End of Study","7","2016-08-14","364","Serum","Direct Bilirubin","μmol/L",5.11231666814736,"0","5.1"
"02-008","End of Study","7","2016-08-14","364","Serum","IgE","mg/L",0.0959389345902094,"0.1","0.4"
"02-008","End of Study","7","2016-08-14","364","Serum","Magnesium","mmol/L",0.721937799131905,"0.62","0.99"
"02-008","End of Study","7","2016-08-14","364","Blood","Platelet count","x 109/L",148.569459948954,"150","350"
"02-008","End of Study","7","2016-08-14","364","Serum","Potassium","mmol/L",5.64714779306052,"3.5","5"
"02-008","End of Study","7","2016-08-14","364","Blood","RBC count","x 1012 cells/L",4.02197477769376,"4.2","5.9"
"02-008","End of Study","7","2016-08-14","364","Serum","Sodium","mmol/L",140.021748229344,"136","145"
"02-008","End of Study","7","2016-08-14","364","Serum","Total Bilirubin","μmol/L",14.5075849985563,"5.1","20.5"
"02-008","End of Study","7","2016-08-14","364","Blood","WBC count","x 109 cells/L",11.1694803084009,"4.5","11"
"02-009","Screening","0","2015-12-13","1","Serum","Albumin","g/L",26.0459386315035,"35","55"
"02-009","Screening","0","2015-12-13","1","Serum","Alkaline phosphatase (ALP)","μkat/L",1.09113727318053,"0.5","1.5"
"02-009","Screening","0","2015-12-13","1","Serum","Aminotransferase, alanine (ALT)","pkat/L",0.132790964069971,"0","0.58"
"02-009","Screening","0","2015-12-13","1","Serum","Aminotransferase, aspartate (AST)","pkat/L",,"0","0.58"
"02-009","Screening","0","2015-12-13","1","Serum","Calcium","mmol/L",2.46259329834082,"2.2","2.6"
"02-009","Screening","0","2015-12-13","1","Serum","Chloride","mmol/L",108.014897965892,"98","106"
"02-009","Screening","0","2015-12-13","1","Serum","Creatinine","μmol/L",94.0670635735925,"61.9","115"
"02-009","Screening","0","2015-12-13","1","Serum","Direct Bilirubin","μmol/L",5.97069485296735,"0","5.1"
"02-009","Screening","0","2015-12-13","1","Serum","IgE","mg/L",0.34427796135223,"0.1","0.4"
"02-009","Screening","0","2015-12-13","1","Serum","Magnesium","mmol/L",0.986813985705553,"0.62","0.99"
"02-009","Screening","0","2015-12-13","1","Blood","Platelet count","x 109/L",343.709342961961,"150","350"
"02-009","Screening","0","2015-12-13","1","Serum","Potassium","mmol/L",3.55030917586244,"3.5","5"
"02-009","Screening","0","2015-12-13","1","Blood","RBC count","x 1012 cells/L",5.23022680545781,"4.2","5.9"
"02-009","Screening","0","2015-12-13","1","Serum","Sodium","mmol/L",,"136","145"
"02-009","Screening","0","2015-12-13","1","Serum","Total Bilirubin","μmol/L",28.45663703759,"5.1","20.5"
"02-009","Screening","0","2015-12-13","1","Blood","WBC count","x 109 cells/L",7.77565708661616,"4.5","11"
"02-009","Visit 1","1","2016-02-04","54","Serum","Albumin","g/L",44.3378551834079,"35","55"
"02-009","Visit 1","1","2016-02-04","54","Serum","Alkaline phosphatase (ALP)","μkat/L",1.82542519138699,"0.5","1.5"
"02-009","Visit 1","1","2016-02-04","54","Serum","Aminotransferase, alanine (ALT)","pkat/L",0.293524570087439,"0","0.58"
"02-009","Visit 1","1","2016-02-04","54","Serum","Aminotransferase, aspartate (AST)","pkat/L",0.278090013479667,"0","0.58"
"02-009","Visit 1","1","2016-02-04","54","Serum","Calcium","mmol/L",,"2.2","2.6"
"02-009","Visit 1","1","2016-02-04","54","Serum","Chloride","mmol/L",105.431414152368,"98","106"
"02-009","Visit 1","1","2016-02-04","54","Serum","Creatinine","μmol/L",35.0246500668435,"61.9","115"
"02-009","Visit 1","1","2016-02-04","54","Serum","Direct Bilirubin","μmol/L",4.00740577216211,"0","5.1"
"02-009","Visit 1","1","2016-02-04","54","Serum","IgE","mg/L",0.242451290868353,"0.1","0.4"
