"USUBJID","SITE","SITEID","AGE","SEX","RACE","ARM","ARMCD","SBJTSTAT","RFSTDTC","RFENDTC","RFENDY","SAFFL","SAFFN","DOMAIN","STDT","STDY","ENDT","ENDY","SEQ","ONGO","OFFSET","TOOLTIP"
"01-001","Clinical Site 01","01","30","F","Other/Mixed","Placebo","PLACEBO","Early Termination","2015-05-21","2015-05-26","6","Y","1","Adverse Events","2015-07-16","57","2015-08-14","86","1","N",1,"This mark definitely represents the Adverse Events domain"
"01-001","Clinical Site 01","01","30","F","Other/Mixed","Placebo","PLACEBO","Early Termination","2015-05-21","2015-05-26","6","Y","1","Concomitant Medications","2015-07-16","57","2015-08-14","86","1","Y",2,"This mark definitely represents the Concomitant Medications domain"
"01-001","Clinical Site 01","01","30","F","Other/Mixed","Placebo","PLACEBO","Early Termination","2015-05-21","2015-05-26","6","Y","1","Enrollment","2015-05-21","1","2015-05-21","1","1",,0,"This mark definitely represents the Enrollment domain"
"01-001","Clinical Site 01","01","30","F","Other/Mixed","Placebo","PLACEBO","Early Termination","2015-05-21","2015-05-26","6","Y","1","Randomization","2015-07-17","58","2015-07-17","58","1",,0,"This mark definitely represents the Randomization domain"
"01-001","Clinical Site 01","01","30","F","Other/Mixed","Placebo","PLACEBO","Early Termination","2015-05-21","2015-05-26","6","Y","1","Study Completion","2016-05-09","355","2016-05-09","355","1",,0,"This mark definitely represents the Study Completion domain"
"01-002","Clinical Site 01","01","24","F","Black","Treatment A","TRTA","Ongoing","2015-05-30","2015-11-09","164","Y","1","Adverse Events","2015-07-02","34","2015-07-16","48","1","Y",1,"This mark definitely represents the Adverse Events domain"
"01-002","Clinical Site 01","01","24","F","Black","Treatment A","TRTA","Ongoing","2015-05-30","2015-11-09","164","Y","1","Adverse Events","2015-11-18","173","2016-05-06","343","2","Y",1,"This mark definitely represents the Adverse Events domain"
"01-002","Clinical Site 01","01","24","F","Black","Treatment A","TRTA","Ongoing","2015-05-30","2015-11-09","164","Y","1","Adverse Events","2015-11-27","182","2016-05-02","339","3","Y",1,"This mark definitely represents the Adverse Events domain"
"01-002","Clinical Site 01","01","24","F","Black","Treatment A","TRTA","Ongoing","2015-05-30","2015-11-09","164","Y","1","Adverse Events","2015-12-19","204","2016-05-25","362","4","Y",1,"This mark definitely represents the Adverse Events domain"
"01-002","Clinical Site 01","01","24","F","Black","Treatment A","TRTA","Ongoing","2015-05-30","2015-11-09","164","Y","1","Adverse Events","2016-03-23","299","2016-04-12","319","5","N",1,"This mark definitely represents the Adverse Events domain"
"01-002","Clinical Site 01","01","24","F","Black","Treatment A","TRTA","Ongoing","2015-05-30","2015-11-09","164","Y","1","Enrollment","2015-05-30","1","2015-05-30","1","1",,0,"This mark definitely represents the Enrollment domain"
"01-002","Clinical Site 01","01","24","F","Black","Treatment A","TRTA","Ongoing","2015-05-30","2015-11-09","164","Y","1","Randomization","2015-07-29","61","2015-07-29","61","1",,0,"This mark definitely represents the Randomization domain"
"01-002","Clinical Site 01","01","24","F","Black","Treatment A","TRTA","Ongoing","2015-05-30","2015-11-09","164","Y","1","Study Completion","2016-05-29","366","2016-05-29","366","1",,0,"This mark definitely represents the Study Completion domain"
"01-003","Clinical Site 01","01","43","F","Hispanic","Placebo","PLACEBO","Ongoing","2015-08-13","2016-02-23","195","Y","1","Adverse Events","2015-09-10","29","2016-03-01","202","1","N",1,"This mark definitely represents the Adverse Events domain"
"01-003","Clinical Site 01","01","43","F","Hispanic","Placebo","PLACEBO","Ongoing","2015-08-13","2016-02-23","195","Y","1","Adverse Events","2016-01-02","143","2016-01-11","152","2","N",1,"This mark definitely represents the Adverse Events domain"
"01-003","Clinical Site 01","01","43","F","Hispanic","Placebo","PLACEBO","Ongoing","2015-08-13","2016-02-23","195","Y","1","Adverse Events","2016-06-12","305","2016-06-20","313","3","Y",1,"This mark definitely represents the Adverse Events domain"
"01-003","Clinical Site 01","01","43","F","Hispanic","Placebo","PLACEBO","Ongoing","2015-08-13","2016-02-23","195","Y","1","Concomitant Medications","2015-12-03","113","2016-07-20","343","1","Y",2,"This mark definitely represents the Concomitant Medications domain"
"01-003","Clinical Site 01","01","43","F","Hispanic","Placebo","PLACEBO","Ongoing","2015-08-13","2016-02-23","195","Y","1","Concomitant Medications","2015-12-16","126","2016-05-07","269","2","N",2,"This mark definitely represents the Concomitant Medications domain"
"01-003","Clinical Site 01","01","43","F","Hispanic","Placebo","PLACEBO","Ongoing","2015-08-13","2016-02-23","195","Y","1","Concomitant Medications","2016-02-10","182","2016-07-16","339","3","Y",2,"This mark definitely represents the Concomitant Medications domain"
"01-003","Clinical Site 01","01","43","F","Hispanic","Placebo","PLACEBO","Ongoing","2015-08-13","2016-02-23","195","Y","1","Enrollment","2015-08-13","1","2015-08-13","1","1",,0,"This mark definitely represents the Enrollment domain"
"01-003","Clinical Site 01","01","43","F","Hispanic","Placebo","PLACEBO","Ongoing","2015-08-13","2016-02-23","195","Y","1","Randomization","2015-10-04","53","2015-10-04","53","1",,0,"This mark definitely represents the Randomization domain"
"01-003","Clinical Site 01","01","43","F","Hispanic","Placebo","PLACEBO","Ongoing","2015-08-13","2016-02-23","195","Y","1","Study Completion","2016-08-18","372","2016-08-18","372","1",,0,"This mark definitely represents the Study Completion domain"
"01-004","Clinical Site 01","01","42","F","Hispanic","Placebo","PLACEBO","Ongoing","2015-01-12","2015-04-26","105","Y","1","Concomitant Medications","2015-07-03","173","2015-12-20","343","1","Y",2,"This mark definitely represents the Concomitant Medications domain"
"01-004","Clinical Site 01","01","42","F","Hispanic","Placebo","PLACEBO","Ongoing","2015-01-12","2015-04-26","105","Y","1","Enrollment","2015-01-12","1","2015-01-12","1","1",,0,"This mark definitely represents the Enrollment domain"
"01-004","Clinical Site 01","01","42","F","Hispanic","Placebo","PLACEBO","Ongoing","2015-01-12","2015-04-26","105","Y","1","Randomization","2015-03-02","50","2015-03-02","50","1",,0,"This mark definitely represents the Randomization domain"
"01-004","Clinical Site 01","01","42","F","Hispanic","Placebo","PLACEBO","Ongoing","2015-01-12","2015-04-26","105","Y","1","Study Completion","2016-01-05","359","2016-01-05","359","1",,0,"This mark definitely represents the Study Completion domain"
"01-005","Clinical Site 01","01","51","M","White","Treatment B","TRTB","Ongoing","2015-11-11","2016-03-18","129","Y","1","Adverse Events","2016-06-15","218","2016-09-30","325","1","N",1,"This mark definitely represents the Adverse Events domain"
"01-005","Clinical Site 01","01","51","M","White","Treatment B","TRTB","Ongoing","2015-11-11","2016-03-18","129","Y","1","Enrollment","2015-11-11","1","2015-11-11","1","1",,0,"This mark definitely represents the Enrollment domain"
"01-005","Clinical Site 01","01","51","M","White","Treatment B","TRTB","Ongoing","2015-11-11","2016-03-18","129","Y","1","Randomization","2016-01-01","52","2016-01-01","52","1",,0,"This mark definitely represents the Randomization domain"
"01-005","Clinical Site 01","01","51","M","White","Treatment B","TRTB","Ongoing","2015-11-11","2016-03-18","129","Y","1","Study Completion","2016-11-18","374","2016-11-18","374","1",,0,"This mark definitely represents the Study Completion domain"
"01-006","Clinical Site 01","01","23","M","White","Screen Failure","SCRNFAIL","Screen Failure","2015-05-12","2015-05-12","1","N","0","Enrollment","2015-05-12","1","2015-05-12","1","1",,0,"This mark definitely represents the Enrollment domain"
"01-007","Clinical Site 01","01","20","M","Other/Mixed","Screen Failure","SCRNFAIL","Screen Failure","2015-09-10","2015-09-10","1","N","0","Enrollment","2015-09-10","1","2015-09-10","1","1",,0,"This mark definitely represents the Enrollment domain"
"01-008","Clinical Site 01","01","53","F","Black","Treatment B","TRTB","Ongoing","2015-11-21","2015-12-05","15","Y","1","Adverse Events","2015-12-26","36","2016-02-16","88","1","N",1,"This mark definitely represents the Adverse Events domain"
"01-008","Clinical Site 01","01","53","F","Black","Treatment B","TRTB","Ongoing","2015-11-21","2015-12-05","15","Y","1","Enrollment","2015-11-21","1","2015-11-21","1","1",,0,"This mark definitely represents the Enrollment domain"
"01-008","Clinical Site 01","01","53","F","Black","Treatment B","TRTB","Ongoing","2015-11-21","2015-12-05","15","Y","1","Randomization","2016-01-08","49","2016-01-08","49","1",,0,"This mark definitely represents the Randomization domain"
"01-008","Clinical Site 01","01","53","F","Black","Treatment B","TRTB","Ongoing","2015-11-21","2015-12-05","15","Y","1","Study Completion","2016-11-14","360","2016-11-14","360","1",,0,"This mark definitely represents the Study Completion domain"
"01-009","Clinical Site 01","01","44","M","White","Treatment B","TRTB","Ongoing","2015-11-25","2016-05-07","165","Y","1","Adverse Events","2016-01-26","63","2016-01-31","68","1","N",1,"This mark definitely represents the Adverse Events domain"
"01-009","Clinical Site 01","01","44","M","White","Treatment B","TRTB","Ongoing","2015-11-25","2016-05-07","165","Y","1","Adverse Events","2016-02-07","75","2016-04-21","149","2","N",1,"This mark definitely represents the Adverse Events domain"
"01-009","Clinical Site 01","01","44","M","White","Treatment B","TRTB","Ongoing","2015-11-25","2016-05-07","165","Y","1","Adverse Events","2016-03-30","127","2016-08-30","280","3","Y",1,"This mark definitely represents the Adverse Events domain"
"01-009","Clinical Site 01","01","44","M","White","Treatment B","TRTB","Ongoing","2015-11-25","2016-05-07","165","Y","1","Adverse Events","2016-08-25","275","2016-10-17","328","4","Y",1,"This mark definitely represents the Adverse Events domain"
"01-009","Clinical Site 01","01","44","M","White","Treatment B","TRTB","Ongoing","2015-11-25","2016-05-07","165","Y","1","Adverse Events","2016-10-27","338","2016-11-07","349","5","N",1,"This mark definitely represents the Adverse Events domain"
"01-009","Clinical Site 01","01","44","M","White","Treatment B","TRTB","Ongoing","2015-11-25","2016-05-07","165","Y","1","Concomitant Medications","2016-02-13","81","2016-04-11","139","1","Y",2,"This mark definitely represents the Concomitant Medications domain"
"01-009","Clinical Site 01","01","44","M","White","Treatment B","TRTB","Ongoing","2015-11-25","2016-05-07","165","Y","1","Concomitant Medications","2016-02-27","95","2016-10-05","316","2","Y",2,"This mark definitely represents the Concomitant Medications domain"
"01-009","Clinical Site 01","01","44","M","White","Treatment B","TRTB","Ongoing","2015-11-25","2016-05-07","165","Y","1","Concomitant Medications","2016-07-01","220","2016-10-01","312","3","Y",2,"This mark definitely represents the Concomitant Medications domain"
"01-009","Clinical Site 01","01","44","M","White","Treatment B","TRTB","Ongoing","2015-11-25","2016-05-07","165","Y","1","Enrollment","2015-11-25","1","2015-11-25","1","1",,0,"This mark definitely represents the Enrollment domain"
"01-009","Clinical Site 01","01","44","M","White","Treatment B","TRTB","Ongoing","2015-11-25","2016-05-07","165","Y","1","Randomization","2016-01-24","61","2016-01-24","61","1",,0,"This mark definitely represents the Randomization domain"
"01-009","Clinical Site 01","01","44","M","White","Treatment B","TRTB","Ongoing","2015-11-25","2016-05-07","165","Y","1","Study Completion","2016-11-29","371","2016-11-29","371","1",,0,"This mark definitely represents the Study Completion domain"
"01-010","Clinical Site 01","01","35","F","Black","Treatment B","TRTB","Ongoing","2015-01-06","2015-05-04","119","Y","1","Enrollment","2015-01-06","1","2015-01-06","1","1",,0,"This mark definitely represents the Enrollment domain"
"01-010","Clinical Site 01","01","35","F","Black","Treatment B","TRTB","Ongoing","2015-01-06","2015-05-04","119","Y","1","Randomization","2015-02-23","49","2015-02-23","49","1",,0,"This mark definitely represents the Randomization domain"
"01-010","Clinical Site 01","01","35","F","Black","Treatment B","TRTB","Ongoing","2015-01-06","2015-05-04","119","Y","1","Study Completion","2016-01-10","370","2016-01-10","370","1",,0,"This mark definitely represents the Study Completion domain"
"01-011","Clinical Site 01","01","33","F","Other/Mixed","Treatment A","TRTA","Ongoing","2015-10-04","2016-01-23","112","Y","1","Adverse Events","2015-12-22","80","2015-12-27","85","1","N",1,"This mark definitely represents the Adverse Events domain"
"01-011","Clinical Site 01","01","33","F","Other/Mixed","Treatment A","TRTA","Ongoing","2015-10-04","2016-01-23","112","Y","1","Enrollment","2015-10-04","1","2015-10-04","1","1",,0,"This mark definitely represents the Enrollment domain"
"01-011","Clinical Site 01","01","33","F","Other/Mixed","Treatment A","TRTA","Ongoing","2015-10-04","2016-01-23","112","Y","1","Randomization","2015-11-30","58","2015-11-30","58","1",,0,"This mark definitely represents the Randomization domain"
"01-011","Clinical Site 01","01","33","F","Other/Mixed","Treatment A","TRTA","Ongoing","2015-10-04","2016-01-23","112","Y","1","Study Completion","2016-09-26","359","2016-09-26","359","1",,0,"This mark definitely represents the Study Completion domain"
"01-012","Clinical Site 01","01","36","M","White","Placebo","PLACEBO","Ongoing","2015-04-18","2015-12-21","248","Y","1","Concomitant Medications","2015-04-23","6","2015-05-05","18","1","N",2,"This mark definitely represents the Concomitant Medications domain"
"01-012","Clinical Site 01","01","36","M","White","Placebo","PLACEBO","Ongoing","2015-04-18","2015-12-21","248","Y","1","Concomitant Medications","2015-07-14","88","2016-02-09","298","2","N",2,"This mark definitely represents the Concomitant Medications domain"
"01-012","Clinical Site 01","01","36","M","White","Placebo","PLACEBO","Ongoing","2015-04-18","2015-12-21","248","Y","1","Concomitant Medications","2016-02-16","305","2016-02-24","313","3","Y",2,"This mark definitely represents the Concomitant Medications domain"
"01-012","Clinical Site 01","01","36","M","White","Placebo","PLACEBO","Ongoing","2015-04-18","2015-12-21","248","Y","1","Enrollment","2015-04-18","1","2015-04-18","1","1",,0,"This mark definitely represents the Enrollment domain"
"01-012","Clinical Site 01","01","36","M","White","Placebo","PLACEBO","Ongoing","2015-04-18","2015-12-21","248","Y","1","Randomization","2015-06-06","50","2015-06-06","50","1",,0,"This mark definitely represents the Randomization domain"
"01-012","Clinical Site 01","01","36","M","White","Placebo","PLACEBO","Ongoing","2015-04-18","2015-12-21","248","Y","1","Study Completion","2016-04-26","375","2016-04-26","375","1",,0,"This mark definitely represents the Study Completion domain"
"01-013","Clinical Site 01","01","40","F","White","Treatment A","TRTA","Ongoing","2015-07-15","2016-06-08","330","Y","1","Adverse Events","2016-04-01","262","2016-04-05","266","1","Y",1,"This mark definitely represents the Adverse Events domain"
"01-013","Clinical Site 01","01","40","F","White","Treatment A","TRTA","Ongoing","2015-07-15","2016-06-08","330","Y","1","Adverse Events","2016-06-09","331","2016-06-29","351","2","N",1,"This mark definitely represents the Adverse Events domain"
"01-013","Clinical Site 01","01","40","F","White","Treatment A","TRTA","Ongoing","2015-07-15","2016-06-08","330","Y","1","Concomitant Medications","2015-10-05","83","2015-12-19","158","1","N",2,"This mark definitely represents the Concomitant Medications domain"
"01-013","Clinical Site 01","01","40","F","White","Treatment A","TRTA","Ongoing","2015-07-15","2016-06-08","330","Y","1","Concomitant Medications","2016-02-14","215","2016-05-20","311","2","N",2,"This mark definitely represents the Concomitant Medications domain"
"01-013","Clinical Site 01","01","40","F","White","Treatment A","TRTA","Ongoing","2015-07-15","2016-06-08","330","Y","1","Concomitant Medications","2016-03-17","247","2016-04-20","281","3","Y",2,"This mark definitely represents the Concomitant Medications domain"
"01-013","Clinical Site 01","01","40","F","White","Treatment A","TRTA","Ongoing","2015-07-15","2016-06-08","330","Y","1","Enrollment","2015-07-15","1","2015-07-15","1","1",,0,"This mark definitely represents the Enrollment domain"
"01-013","Clinical Site 01","01","40","F","White","Treatment A","TRTA","Ongoing","2015-07-15","2016-06-08","330","Y","1","Randomization","2015-09-11","59","2015-09-11","59","1",,0,"This mark definitely represents the Randomization domain"
"01-013","Clinical Site 01","01","40","F","White","Treatment A","TRTA","Ongoing","2015-07-15","2016-06-08","330","Y","1","Study Completion","2016-07-08","360","2016-07-08","360","1",,0,"This mark definitely represents the Study Completion domain"
"01-014","Clinical Site 01","01","37","M","Black","Treatment A","TRTA","Ongoing","2015-07-24","2016-02-14","206","Y","1","Adverse Events","2015-12-20","150","2015-12-20","150","1","Y",1,"This mark definitely represents the Adverse Events domain"
"01-014","Clinical Site 01","01","37","M","Black","Treatment A","TRTA","Ongoing","2015-07-24","2016-02-14","206","Y","1","Adverse Events","2016-01-05","166","2016-02-14","206","2","Y",1,"This mark definitely represents the Adverse Events domain"
"01-014","Clinical Site 01","01","37","M","Black","Treatment A","TRTA","Ongoing","2015-07-24","2016-02-14","206","Y","1","Adverse Events","2016-02-08","200","2016-07-18","361","3","N",1,"This mark definitely represents the Adverse Events domain"
"01-014","Clinical Site 01","01","37","M","Black","Treatment A","TRTA","Ongoing","2015-07-24","2016-02-14","206","Y","1","Adverse Events","2016-03-29","250","2016-05-18","300","4","N",1,"This mark definitely represents the Adverse Events domain"
"01-014","Clinical Site 01","01","37","M","Black","Treatment A","TRTA","Ongoing","2015-07-24","2016-02-14","206","Y","1","Concomitant Medications","2015-10-06","75","2015-12-19","149","1","N",2,"This mark definitely represents the Concomitant Medications domain"
"01-014","Clinical Site 01","01","37","M","Black","Treatment A","TRTA","Ongoing","2015-07-24","2016-02-14","206","Y","1","Concomitant Medications","2015-12-20","150","2016-04-01","253","2","Y",2,"This mark definitely represents the Concomitant Medications domain"
"01-014","Clinical Site 01","01","37","M","Black","Treatment A","TRTA","Ongoing","2015-07-24","2016-02-14","206","Y","1","Concomitant Medications","2016-02-22","214","2016-02-25","217","3","N",2,"This mark definitely represents the Concomitant Medications domain"
"01-014","Clinical Site 01","01","37","M","Black","Treatment A","TRTA","Ongoing","2015-07-24","2016-02-14","206","Y","1","Concomitant Medications","2016-03-16","237","2016-05-20","302","4","Y",2,"This mark definitely represents the Concomitant Medications domain"
"01-014","Clinical Site 01","01","37","M","Black","Treatment A","TRTA","Ongoing","2015-07-24","2016-02-14","206","Y","1","Enrollment","2015-07-24","1","2015-07-24","1","1",,0,"This mark definitely represents the Enrollment domain"
"01-014","Clinical Site 01","01","37","M","Black","Treatment A","TRTA","Ongoing","2015-07-24","2016-02-14","206","Y","1","Randomization","2015-09-17","56","2015-09-17","56","1",,0,"This mark definitely represents the Randomization domain"
"01-014","Clinical Site 01","01","37","M","Black","Treatment A","TRTA","Ongoing","2015-07-24","2016-02-14","206","Y","1","Study Completion","2016-07-21","364","2016-07-21","364","1",,0,"This mark definitely represents the Study Completion domain"
"01-015","Clinical Site 01","01","26","M","Hispanic","Treatment B","TRTB","Ongoing","2015-04-28","2015-11-07","194","Y","1","Concomitant Medications","2015-06-27","61","2015-09-08","134","1","Y",2,"This mark definitely represents the Concomitant Medications domain"
"01-015","Clinical Site 01","01","26","M","Hispanic","Treatment B","TRTB","Ongoing","2015-04-28","2015-11-07","194","Y","1","Concomitant Medications","2015-12-23","240","2016-02-04","283","2","N",2,"This mark definitely represents the Concomitant Medications domain"
"01-015","Clinical Site 01","01","26","M","Hispanic","Treatment B","TRTB","Ongoing","2015-04-28","2015-11-07","194","Y","1","Concomitant Medications","2015-12-27","244","2016-03-22","330","3","Y",2,"This mark definitely represents the Concomitant Medications domain"
"01-015","Clinical Site 01","01","26","M","Hispanic","Treatment B","TRTB","Ongoing","2015-04-28","2015-11-07","194","Y","1","Concomitant Medications","2016-03-27","335","2016-03-29","337","4","N",2,"This mark definitely represents the Concomitant Medications domain"
"01-015","Clinical Site 01","01","26","M","Hispanic","Treatment B","TRTB","Ongoing","2015-04-28","2015-11-07","194","Y","1","Enrollment","2015-04-28","1","2015-04-28","1","1",,0,"This mark definitely represents the Enrollment domain"
"01-015","Clinical Site 01","01","26","M","Hispanic","Treatment B","TRTB","Ongoing","2015-04-28","2015-11-07","194","Y","1","Randomization","2015-06-15","49","2015-06-15","49","1",,0,"This mark definitely represents the Randomization domain"
"01-015","Clinical Site 01","01","26","M","Hispanic","Treatment B","TRTB","Ongoing","2015-04-28","2015-11-07","194","Y","1","Study Completion","2016-05-05","374","2016-05-05","374","1",,0,"This mark definitely represents the Study Completion domain"
"01-016","Clinical Site 01","01","18","M","Black","Treatment A","TRTA","Ongoing","2015-12-21","2016-09-06","261","Y","1","Adverse Events","2016-02-10","52","2016-07-22","215","1","N",1,"This mark definitely represents the Adverse Events domain"
"01-016","Clinical Site 01","01","18","M","Black","Treatment A","TRTA","Ongoing","2015-12-21","2016-09-06","261","Y","1","Adverse Events","2016-03-18","89","2016-10-18","303","2","Y",1,"This mark definitely represents the Adverse Events domain"
"01-016","Clinical Site 01","01","18","M","Black","Treatment A","TRTA","Ongoing","2015-12-21","2016-09-06","261","Y","1","Adverse Events","2016-04-08","110","2016-06-27","190","3","Y",1,"This mark definitely represents the Adverse Events domain"
"01-016","Clinical Site 01","01","18","M","Black","Treatment A","TRTA","Ongoing","2015-12-21","2016-09-06","261","Y","1","Enrollment","2015-12-21","1","2015-12-21","1","1",,0,"This mark definitely represents the Enrollment domain"
"01-016","Clinical Site 01","01","18","M","Black","Treatment A","TRTA","Ongoing","2015-12-21","2016-09-06","261","Y","1","Randomization","2016-02-09","51","2016-02-09","51","1",,0,"This mark definitely represents the Randomization domain"
"01-016","Clinical Site 01","01","18","M","Black","Treatment A","TRTA","Ongoing","2015-12-21","2016-09-06","261","Y","1","Study Completion","2016-12-28","374","2016-12-28","374","1",,0,"This mark definitely represents the Study Completion domain"
"01-017","Clinical Site 01","01","40","M","Hispanic","Treatment A","TRTA","Ongoing","2015-02-12","2015-08-05","175","Y","1","Adverse Events","2015-05-07","85","2015-07-26","165","1","Y",1,"This mark definitely represents the Adverse Events domain"
"01-017","Clinical Site 01","01","40","M","Hispanic","Treatment A","TRTA","Ongoing","2015-02-12","2015-08-05","175","Y","1","Adverse Events","2015-10-27","258","2015-12-14","306","2","N",1,"This mark definitely represents the Adverse Events domain"
"01-017","Clinical Site 01","01","40","M","Hispanic","Treatment A","TRTA","Ongoing","2015-02-12","2015-08-05","175","Y","1","Adverse Events","2015-11-15","277","2016-01-19","342","3","N",1,"This mark definitely represents the Adverse Events domain"
"01-017","Clinical Site 01","01","40","M","Hispanic","Treatment A","TRTA","Ongoing","2015-02-12","2015-08-05","175","Y","1","Concomitant Medications","2015-05-12","90","2015-09-11","212","1","Y",2,"This mark definitely represents the Concomitant Medications domain"
"01-017","Clinical Site 01","01","40","M","Hispanic","Treatment A","TRTA","Ongoing","2015-02-12","2015-08-05","175","Y","1","Concomitant Medications","2015-10-31","262","2015-11-04","266","2","Y",2,"This mark definitely represents the Concomitant Medications domain"
"01-017","Clinical Site 01","01","40","M","Hispanic","Treatment A","TRTA","Ongoing","2015-02-12","2015-08-05","175","Y","1","Enrollment","2015-02-12","1","2015-02-12","1","1",,0,"This mark definitely represents the Enrollment domain"
"01-017","Clinical Site 01","01","40","M","Hispanic","Treatment A","TRTA","Ongoing","2015-02-12","2015-08-05","175","Y","1","Randomization","2015-04-04","52","2015-04-04","52","1",,0,"This mark definitely represents the Randomization domain"
"01-017","Clinical Site 01","01","40","M","Hispanic","Treatment A","TRTA","Ongoing","2015-02-12","2015-08-05","175","Y","1","Study Completion","2016-02-19","373","2016-02-19","373","1",,0,"This mark definitely represents the Study Completion domain"
"01-018","Clinical Site 01","01","29","F","Hispanic","Treatment B","TRTB","Ongoing","2015-02-13","2015-07-01","139","Y","1","Adverse Events","2015-03-08","24","2015-04-25","72","1","N",1,"This mark definitely represents the Adverse Events domain"
"01-018","Clinical Site 01","01","29","F","Hispanic","Treatment B","TRTB","Ongoing","2015-02-13","2015-07-01","139","Y","1","Adverse Events","2015-05-27","104","2016-02-07","360","2","N",1,"This mark definitely represents the Adverse Events domain"
"01-018","Clinical Site 01","01","29","F","Hispanic","Treatment B","TRTB","Ongoing","2015-02-13","2015-07-01","139","Y","1","Adverse Events","2015-08-05","174","2015-08-13","182","3","Y",1,"This mark definitely represents the Adverse Events domain"
"01-018","Clinical Site 01","01","29","F","Hispanic","Treatment B","TRTB","Ongoing","2015-02-13","2015-07-01","139","Y","1","Adverse Events","2015-11-06","267","2016-02-07","360","4","Y",1,"This mark definitely represents the Adverse Events domain"
"01-018","Clinical Site 01","01","29","F","Hispanic","Treatment B","TRTB","Ongoing","2015-02-13","2015-07-01","139","Y","1","Adverse Events","2015-12-31","322","2015-12-31","322","5","Y",1,"This mark definitely represents the Adverse Events domain"
"01-018","Clinical Site 01","01","29","F","Hispanic","Treatment B","TRTB","Ongoing","2015-02-13","2015-07-01","139","Y","1","Enrollment","2015-02-13","1","2015-02-13","1","1",,0,"This mark definitely represents the Enrollment domain"
"01-018","Clinical Site 01","01","29","F","Hispanic","Treatment B","TRTB","Ongoing","2015-02-13","2015-07-01","139","Y","1","Randomization","2015-04-04","51","2015-04-04","51","1",,0,"This mark definitely represents the Randomization domain"
"01-018","Clinical Site 01","01","29","F","Hispanic","Treatment B","TRTB","Ongoing","2015-02-13","2015-07-01","139","Y","1","Study Completion","2016-02-09","362","2016-02-09","362","1",,0,"This mark definitely represents the Study Completion domain"
"01-019","Clinical Site 01","01","47","M","Other/Mixed","Treatment B","TRTB","Ongoing","2015-04-24","2016-01-31","283","Y","1","Adverse Events","2015-08-25","124","2015-12-24","245","1","N",1,"This mark definitely represents the Adverse Events domain"
"01-019","Clinical Site 01","01","47","M","Other/Mixed","Treatment B","TRTB","Ongoing","2015-04-24","2016-01-31","283","Y","1","Adverse Events","2015-10-06","166","2015-12-16","237","2","Y",1,"This mark definitely represents the Adverse Events domain"
"01-019","Clinical Site 01","01","47","M","Other/Mixed","Treatment B","TRTB","Ongoing","2015-04-24","2016-01-31","283","Y","1","Adverse Events","2015-12-07","228","2016-01-27","279","3","Y",1,"This mark definitely represents the Adverse Events domain"
"01-019","Clinical Site 01","01","47","M","Other/Mixed","Treatment B","TRTB","Ongoing","2015-04-24","2016-01-31","283","Y","1","Adverse Events","2016-02-11","294","2016-03-24","336","4","Y",1,"This mark definitely represents the Adverse Events domain"
"01-019","Clinical Site 01","01","47","M","Other/Mixed","Treatment B","TRTB","Ongoing","2015-04-24","2016-01-31","283","Y","1","Adverse Events","2016-04-14","357","2016-04-17","360","5","Y",1,"This mark definitely represents the Adverse Events domain"
"01-019","Clinical Site 01","01","47","M","Other/Mixed","Treatment B","TRTB","Ongoing","2015-04-24","2016-01-31","283","Y","1","Concomitant Medications","2015-05-26","33","2015-08-08","107","1","N",2,"This mark definitely represents the Concomitant Medications domain"
"01-019","Clinical Site 01","01","47","M","Other/Mixed","Treatment B","TRTB","Ongoing","2015-04-24","2016-01-31","283","Y","1","Concomitant Medications","2015-09-27","157","2016-02-04","287","2","N",2,"This mark definitely represents the Concomitant Medications domain"
"01-019","Clinical Site 01","01","47","M","Other/Mixed","Treatment B","TRTB","Ongoing","2015-04-24","2016-01-31","283","Y","1","Concomitant Medications","2015-10-06","166","2015-11-15","206","3","N",2,"This mark definitely represents the Concomitant Medications domain"
"01-019","Clinical Site 01","01","47","M","Other/Mixed","Treatment B","TRTB","Ongoing","2015-04-24","2016-01-31","283","Y","1","Concomitant Medications","2015-12-03","224","2016-01-11","263","4","Y",2,"This mark definitely represents the Concomitant Medications domain"
"01-019","Clinical Site 01","01","47","M","Other/Mixed","Treatment B","TRTB","Ongoing","2015-04-24","2016-01-31","283","Y","1","Enrollment","2015-04-24","1","2015-04-24","1","1",,0,"This mark definitely represents the Enrollment domain"
"01-019","Clinical Site 01","01","47","M","Other/Mixed","Treatment B","TRTB","Ongoing","2015-04-24","2016-01-31","283","Y","1","Randomization","2015-06-15","53","2015-06-15","53","1",,0,"This mark definitely represents the Randomization domain"
"01-019","Clinical Site 01","01","47","M","Other/Mixed","Treatment B","TRTB","Ongoing","2015-04-24","2016-01-31","283","Y","1","Study Completion","2016-04-27","370","2016-04-27","370","1",,0,"This mark definitely represents the Study Completion domain"
"01-020","Clinical Site 01","01","27","M","Hispanic","Screen Failure","SCRNFAIL","Screen Failure","2015-06-17","2015-06-17","1","N","0","Enrollment","2015-06-17","1","2015-06-17","1","1",,0,"This mark definitely represents the Enrollment domain"
"01-021","Clinical Site 01","01","23","F","Black","Treatment A","TRTA","Ongoing","2015-10-04","2015-11-15","43","Y","1","Adverse Events","2016-06-24","265","2016-06-26","267","1","N",1,"This mark definitely represents the Adverse Events domain"
"01-021","Clinical Site 01","01","23","F","Black","Treatment A","TRTA","Ongoing","2015-10-04","2015-11-15","43","Y","1","Enrollment","2015-10-04","1","2015-10-04","1","1",,0,"This mark definitely represents the Enrollment domain"
"01-021","Clinical Site 01","01","23","F","Black","Treatment A","TRTA","Ongoing","2015-10-04","2015-11-15","43","Y","1","Randomization","2015-11-21","49","2015-11-21","49","1",,0,"This mark definitely represents the Randomization domain"
"01-021","Clinical Site 01","01","23","F","Black","Treatment A","TRTA","Ongoing","2015-10-04","2015-11-15","43","Y","1","Study Completion","2016-10-01","364","2016-10-01","364","1",,0,"This mark definitely represents the Study Completion domain"
"01-022","Clinical Site 01","01","27","F","Black","Treatment A","TRTA","Completed","2015-10-01","2016-09-20","356","Y","1","Adverse Events","2016-01-22","114","2016-08-24","329","1","Y",1,"This mark definitely represents the Adverse Events domain"
"01-022","Clinical Site 01","01","27","F","Black","Treatment A","TRTA","Completed","2015-10-01","2016-09-20","356","Y","1","Adverse Events","2016-05-27","240","2016-06-29","273","2","N",1,"This mark definitely represents the Adverse Events domain"
"01-022","Clinical Site 01","01","27","F","Black","Treatment A","TRTA","Completed","2015-10-01","2016-09-20","356","Y","1","Adverse Events","2016-06-30","274","2016-09-26","362","3","N",1,"This mark definitely represents the Adverse Events domain"
"01-022","Clinical Site 01","01","27","F","Black","Treatment A","TRTA","Completed","2015-10-01","2016-09-20","356","Y","1","Adverse Events","2016-08-11","316","2016-08-28","333","4","N",1,"This mark definitely represents the Adverse Events domain"
"01-022","Clinical Site 01","01","27","F","Black","Treatment A","TRTA","Completed","2015-10-01","2016-09-20","356","Y","1","Concomitant Medications","2015-10-14","14","2016-05-24","237","1","Y",2,"This mark definitely represents the Concomitant Medications domain"
"01-022","Clinical Site 01","01","27","F","Black","Treatment A","TRTA","Completed","2015-10-01","2016-09-20","356","Y","1","Concomitant Medications","2016-01-18","110","2016-04-07","190","2","N",2,"This mark definitely represents the Concomitant Medications domain"
"01-022","Clinical Site 01","01","27","F","Black","Treatment A","TRTA","Completed","2015-10-01","2016-09-20","356","Y","1","Concomitant Medications","2016-03-13","165","2016-06-06","250","3","N",2,"This mark definitely represents the Concomitant Medications domain"
"01-022","Clinical Site 01","01","27","F","Black","Treatment A","TRTA","Completed","2015-10-01","2016-09-20","356","Y","1","Enrollment","2015-10-01","1","2015-10-01","1","1",,0,"This mark definitely represents the Enrollment domain"
"01-022","Clinical Site 01","01","27","F","Black","Treatment A","TRTA","Completed","2015-10-01","2016-09-20","356","Y","1","Randomization","2015-11-28","59","2015-11-28","59","1",,0,"This mark definitely represents the Randomization domain"
"01-022","Clinical Site 01","01","27","F","Black","Treatment A","TRTA","Completed","2015-10-01","2016-09-20","356","Y","1","Study Completion","2016-10-07","373","2016-10-07","373","1",,0,"This mark definitely represents the Study Completion domain"
"01-023","Clinical Site 01","01","48","M","Black","Treatment A","TRTA","Ongoing","2015-03-29","2015-09-03","159","Y","1","Adverse Events","2015-12-20","267","2016-01-30","308","1","Y",1,"This mark definitely represents the Adverse Events domain"
"01-023","Clinical Site 01","01","48","M","Black","Treatment A","TRTA","Ongoing","2015-03-29","2015-09-03","159","Y","1","Concomitant Medications","2015-05-19","52","2015-10-29","215","1","N",2,"This mark definitely represents the Concomitant Medications domain"
"01-023","Clinical Site 01","01","48","M","Black","Treatment A","TRTA","Ongoing","2015-03-29","2015-09-03","159","Y","1","Enrollment","2015-03-29","1","2015-03-29","1","1",,0,"This mark definitely represents the Enrollment domain"
"01-023","Clinical Site 01","01","48","M","Black","Treatment A","TRTA","Ongoing","2015-03-29","2015-09-03","159","Y","1","Randomization","2015-05-22","55","2015-05-22","55","1",,0,"This mark definitely represents the Randomization domain"
"01-023","Clinical Site 01","01","48","M","Black","Treatment A","TRTA","Ongoing","2015-03-29","2015-09-03","159","Y","1","Study Completion","2016-03-22","360","2016-03-22","360","1",,0,"This mark definitely represents the Study Completion domain"
"01-024","Clinical Site 01","01","24","F","Other/Mixed","Treatment B","TRTB","Ongoing","2015-04-23","2015-10-28","189","Y","1","Concomitant Medications","2015-07-20","89","2016-02-19","303","1","N",2,"This mark definitely represents the Concomitant Medications domain"
"01-024","Clinical Site 01","01","24","F","Other/Mixed","Treatment B","TRTB","Ongoing","2015-04-23","2015-10-28","189","Y","1","Enrollment","2015-04-23","1","2015-04-23","1","1",,0,"This mark definitely represents the Enrollment domain"
"01-024","Clinical Site 01","01","24","F","Other/Mixed","Treatment B","TRTB","Ongoing","2015-04-23","2015-10-28","189","Y","1","Randomization","2015-06-10","49","2015-06-10","49","1",,0,"This mark definitely represents the Randomization domain"
"01-024","Clinical Site 01","01","24","F","Other/Mixed","Treatment B","TRTB","Ongoing","2015-04-23","2015-10-28","189","Y","1","Study Completion","2016-04-25","369","2016-04-25","369","1",,0,"This mark definitely represents the Study Completion domain"
"01-025","Clinical Site 01","01","21","M","White","Placebo","PLACEBO","Ongoing","2015-06-22","2015-09-25","96","Y","1","Adverse Events","2015-06-28","7","2016-01-29","222","1","N",1,"This mark definitely represents the Adverse Events domain"
"01-025","Clinical Site 01","01","21","M","White","Placebo","PLACEBO","Ongoing","2015-06-22","2015-09-25","96","Y","1","Adverse Events","2016-01-20","213","2016-04-17","301","2","Y",1,"This mark definitely represents the Adverse Events domain"
"01-025","Clinical Site 01","01","21","M","White","Placebo","PLACEBO","Ongoing","2015-06-22","2015-09-25","96","Y","1","Adverse Events","2016-02-01","225","2016-06-07","352","3","Y",1,"This mark definitely represents the Adverse Events domain"
"01-025","Clinical Site 01","01","21","M","White","Placebo","PLACEBO","Ongoing","2015-06-22","2015-09-25","96","Y","1","Adverse Events","2016-03-27","280","2016-04-22","306","4","Y",1,"This mark definitely represents the Adverse Events domain"
"01-025","Clinical Site 01","01","21","M","White","Placebo","PLACEBO","Ongoing","2015-06-22","2015-09-25","96","Y","1","Concomitant Medications","2016-01-15","208","2016-04-28","312","1","Y",2,"This mark definitely represents the Concomitant Medications domain"
"01-025","Clinical Site 01","01","21","M","White","Placebo","PLACEBO","Ongoing","2015-06-22","2015-09-25","96","Y","1","Enrollment","2015-06-22","1","2015-06-22","1","1",,0,"This mark definitely represents the Enrollment domain"
"01-025","Clinical Site 01","01","21","M","White","Placebo","PLACEBO","Ongoing","2015-06-22","2015-09-25","96","Y","1","Randomization","2015-08-15","55","2015-08-15","55","1",,0,"This mark definitely represents the Randomization domain"
"01-025","Clinical Site 01","01","21","M","White","Placebo","PLACEBO","Ongoing","2015-06-22","2015-09-25","96","Y","1","Study Completion","2016-06-23","368","2016-06-23","368","1",,0,"This mark definitely represents the Study Completion domain"
"01-026","Clinical Site 01","01","25","F","White","Treatment A","TRTA","Completed","2015-02-19","2016-02-28","375","Y","1","Adverse Events","2015-04-19","60","2015-09-11","205","1","Y",1,"This mark definitely represents the Adverse Events domain"
"01-026","Clinical Site 01","01","25","F","White","Treatment A","TRTA","Completed","2015-02-19","2016-02-28","375","Y","1","Adverse Events","2015-08-22","185","2015-08-23","186","2","N",1,"This mark definitely represents the Adverse Events domain"
"01-026","Clinical Site 01","01","25","F","White","Treatment A","TRTA","Completed","2015-02-19","2016-02-28","375","Y","1","Adverse Events","2015-12-13","298","2015-12-20","305","3","N",1,"This mark definitely represents the Adverse Events domain"
"01-026","Clinical Site 01","01","25","F","White","Treatment A","TRTA","Completed","2015-02-19","2016-02-28","375","Y","1","Adverse Events","2016-02-13","360","2016-02-13","360","4","N",1,"This mark definitely represents the Adverse Events domain"
"01-026","Clinical Site 01","01","25","F","White","Treatment A","TRTA","Completed","2015-02-19","2016-02-28","375","Y","1","Concomitant Medications","2016-01-05","321","2016-01-18","334","1","N",2,"This mark definitely represents the Concomitant Medications domain"
"01-026","Clinical Site 01","01","25","F","White","Treatment A","TRTA","Completed","2015-02-19","2016-02-28","375","Y","1","Enrollment","2015-02-19","1","2015-02-19","1","1",,0,"This mark definitely represents the Enrollment domain"
"01-026","Clinical Site 01","01","25","F","White","Treatment A","TRTA","Completed","2015-02-19","2016-02-28","375","Y","1","Randomization","2015-04-09","50","2015-04-09","50","1",,0,"This mark definitely represents the Randomization domain"
"01-026","Clinical Site 01","01","25","F","White","Treatment A","TRTA","Completed","2015-02-19","2016-02-28","375","Y","1","Study Completion","2016-02-25","372","2016-02-25","372","1",,0,"This mark definitely represents the Study Completion domain"
"01-027","Clinical Site 01","01","40","F","Other/Mixed","Treatment B","TRTB","Ongoing","2015-06-01","2015-10-24","146","Y","1","Adverse Events","2015-07-20","50","2015-08-30","91","1","Y",1,"This mark definitely represents the Adverse Events domain"
"01-027","Clinical Site 01","01","40","F","Other/Mixed","Treatment B","TRTB","Ongoing","2015-06-01","2015-10-24","146","Y","1","Adverse Events","2015-08-15","76","2015-10-11","133","2","Y",1,"This mark definitely represents the Adverse Events domain"
"01-027","Clinical Site 01","01","40","F","Other/Mixed","Treatment B","TRTB","Ongoing","2015-06-01","2015-10-24","146","Y","1","Adverse Events","2015-09-05","97","2015-11-10","163","3","N",1,"This mark definitely represents the Adverse Events domain"
"01-027","Clinical Site 01","01","40","F","Other/Mixed","Treatment B","TRTB","Ongoing","2015-06-01","2015-10-24","146","Y","1","Adverse Events","2016-02-23","268","2016-03-20","294","4","N",1,"This mark definitely represents the Adverse Events domain"
"01-027","Clinical Site 01","01","40","F","Other/Mixed","Treatment B","TRTB","Ongoing","2015-06-01","2015-10-24","146","Y","1","Adverse Events","2016-05-25","360","2016-05-27","362","5","N",1,"This mark definitely represents the Adverse Events domain"
"01-027","Clinical Site 01","01","40","F","Other/Mixed","Treatment B","TRTB","Ongoing","2015-06-01","2015-10-24","146","Y","1","Concomitant Medications","2015-06-04","4","2016-03-25","299","1","Y",2,"This mark definitely represents the Concomitant Medications domain"
"01-027","Clinical Site 01","01","40","F","Other/Mixed","Treatment B","TRTB","Ongoing","2015-06-01","2015-10-24","146","Y","1","Concomitant Medications","2016-01-24","238","2016-05-30","365","2","N",2,"This mark definitely represents the Concomitant Medications domain"
"01-027","Clinical Site 01","01","40","F","Other/Mixed","Treatment B","TRTB","Ongoing","2015-06-01","2015-10-24","146","Y","1","Concomitant Medications","2016-02-23","268","2016-05-02","337","3","N",2,"This mark definitely represents the Concomitant Medications domain"
"01-027","Clinical Site 01","01","40","F","Other/Mixed","Treatment B","TRTB","Ongoing","2015-06-01","2015-10-24","146","Y","1","Concomitant Medications","2016-03-27","301","2016-05-27","362","4","N",2,"This mark definitely represents the Concomitant Medications domain"
"01-027","Clinical Site 01","01","40","F","Other/Mixed","Treatment B","TRTB","Ongoing","2015-06-01","2015-10-24","146","Y","1","Enrollment","2015-06-01","1","2015-06-01","1","1",,0,"This mark definitely represents the Enrollment domain"
"01-027","Clinical Site 01","01","40","F","Other/Mixed","Treatment B","TRTB","Ongoing","2015-06-01","2015-10-24","146","Y","1","Randomization","2015-07-26","56","2015-07-26","56","1",,0,"This mark definitely represents the Randomization domain"
"01-027","Clinical Site 01","01","40","F","Other/Mixed","Treatment B","TRTB","Ongoing","2015-06-01","2015-10-24","146","Y","1","Study Completion","2016-05-25","360","2016-05-25","360","1",,0,"This mark definitely represents the Study Completion domain"
"01-028","Clinical Site 01","01","21","F","Hispanic","Treatment B","TRTB","Completed","2015-11-12","2016-11-04","359","Y","1","Adverse Events","2015-12-11","30","2016-10-18","342","1","Y",1,"This mark definitely represents the Adverse Events domain"
"01-028","Clinical Site 01","01","21","F","Hispanic","Treatment B","TRTB","Completed","2015-11-12","2016-11-04","359","Y","1","Adverse Events","2016-02-17","98","2016-05-24","195","2","N",1,"This mark definitely represents the Adverse Events domain"
"01-028","Clinical Site 01","01","21","F","Hispanic","Treatment B","TRTB","Completed","2015-11-12","2016-11-04","359","Y","1","Adverse Events","2016-06-24","226","2016-11-09","364","3","N",1,"This mark definitely represents the Adverse Events domain"
"01-028","Clinical Site 01","01","21","F","Hispanic","Treatment B","TRTB","Completed","2015-11-12","2016-11-04","359","Y","1","Adverse Events","2016-07-11","243","2016-10-18","342","4","Y",1,"This mark definitely represents the Adverse Events domain"
"01-028","Clinical Site 01","01","21","F","Hispanic","Treatment B","TRTB","Completed","2015-11-12","2016-11-04","359","Y","1","Adverse Events","2016-10-12","336","2016-10-13","337","5","N",1,"This mark definitely represents the Adverse Events domain"
"01-028","Clinical Site 01","01","21","F","Hispanic","Treatment B","TRTB","Completed","2015-11-12","2016-11-04","359","Y","1","Concomitant Medications","2016-11-02","357","2016-11-10","365","1","Y",2,"This mark definitely represents the Concomitant Medications domain"
"01-028","Clinical Site 01","01","21","F","Hispanic","Treatment B","TRTB","Completed","2015-11-12","2016-11-04","359","Y","1","Enrollment","2015-11-12","1","2015-11-12","1","1",,0,"This mark definitely represents the Enrollment domain"
"01-028","Clinical Site 01","01","21","F","Hispanic","Treatment B","TRTB","Completed","2015-11-12","2016-11-04","359","Y","1","Randomization","2016-01-02","52","2016-01-02","52","1",,0,"This mark definitely represents the Randomization domain"
"01-028","Clinical Site 01","01","21","F","Hispanic","Treatment B","TRTB","Completed","2015-11-12","2016-11-04","359","Y","1","Study Completion","2016-11-04","359","2016-11-04","359","1",,0,"This mark definitely represents the Study Completion domain"
"01-029","Clinical Site 01","01","50","M","Black","Placebo","PLACEBO","Ongoing","2015-06-10","2016-05-23","349","Y","1","Adverse Events","2016-01-14","219","2016-03-25","290","1","N",1,"This mark definitely represents the Adverse Events domain"
"01-029","Clinical Site 01","01","50","M","Black","Placebo","PLACEBO","Ongoing","2015-06-10","2016-05-23","349","Y","1","Concomitant Medications","2015-06-25","16","2016-02-24","260","1","N",2,"This mark definitely represents the Concomitant Medications domain"
"01-029","Clinical Site 01","01","50","M","Black","Placebo","PLACEBO","Ongoing","2015-06-10","2016-05-23","349","Y","1","Concomitant Medications","2015-11-30","174","2015-12-08","182","2","Y",2,"This mark definitely represents the Concomitant Medications domain"
"01-029","Clinical Site 01","01","50","M","Black","Placebo","PLACEBO","Ongoing","2015-06-10","2016-05-23","349","Y","1","Concomitant Medications","2016-03-16","281","2016-05-22","348","3","Y",2,"This mark definitely represents the Concomitant Medications domain"
"01-029","Clinical Site 01","01","50","M","Black","Placebo","PLACEBO","Ongoing","2015-06-10","2016-05-23","349","Y","1","Concomitant Medications","2016-04-05","301","2016-05-03","329","4","N",2,"This mark definitely represents the Concomitant Medications domain"
"01-029","Clinical Site 01","01","50","M","Black","Placebo","PLACEBO","Ongoing","2015-06-10","2016-05-23","349","Y","1","Enrollment","2015-06-10","1","2015-06-10","1","1",,0,"This mark definitely represents the Enrollment domain"
"01-029","Clinical Site 01","01","50","M","Black","Placebo","PLACEBO","Ongoing","2015-06-10","2016-05-23","349","Y","1","Randomization","2015-08-06","58","2015-08-06","58","1",,0,"This mark definitely represents the Randomization domain"
"01-029","Clinical Site 01","01","50","M","Black","Placebo","PLACEBO","Ongoing","2015-06-10","2016-05-23","349","Y","1","Study Completion","2016-06-16","373","2016-06-16","373","1",,0,"This mark definitely represents the Study Completion domain"
"01-030","Clinical Site 01","01","25","M","Other/Mixed","Screen Failure","SCRNFAIL","Screen Failure","2015-01-18","2015-01-18","1","N","0","Enrollment","2015-01-18","1","2015-01-18","1","1",,0,"This mark definitely represents the Enrollment domain"
"02-001","Clinical Site 02","02","20","M","White","Screen Failure","SCRNFAIL","Screen Failure","2015-12-11","2015-12-11","1","N","0","Enrollment","2015-12-11","1","2015-12-11","1","1",,0,"This mark definitely represents the Enrollment domain"
"02-002","Clinical Site 02","02","42","F","White","Treatment B","TRTB","Ongoing","2015-03-16","2015-07-18","125","Y","1","Adverse Events","2015-05-17","63","2015-07-08","115","1","N",1,"This mark definitely represents the Adverse Events domain"
"02-002","Clinical Site 02","02","42","F","White","Treatment B","TRTB","Ongoing","2015-03-16","2015-07-18","125","Y","1","Concomitant Medications","2015-07-26","133","2015-07-28","135","1","Y",2,"This mark definitely represents the Concomitant Medications domain"
"02-002","Clinical Site 02","02","42","F","White","Treatment B","TRTB","Ongoing","2015-03-16","2015-07-18","125","Y","1","Concomitant Medications","2015-09-22","191","2015-10-04","203","2","N",2,"This mark definitely represents the Concomitant Medications domain"
"02-002","Clinical Site 02","02","42","F","White","Treatment B","TRTB","Ongoing","2015-03-16","2015-07-18","125","Y","1","Concomitant Medications","2016-03-06","357","2016-03-09","360","3","Y",2,"This mark definitely represents the Concomitant Medications domain"
"02-002","Clinical Site 02","02","42","F","White","Treatment B","TRTB","Ongoing","2015-03-16","2015-07-18","125","Y","1","Concomitant Medications","2016-03-07","358","2016-03-07","358","4","Y",2,"This mark definitely represents the Concomitant Medications domain"
"02-002","Clinical Site 02","02","42","F","White","Treatment B","TRTB","Ongoing","2015-03-16","2015-07-18","125","Y","1","Enrollment","2015-03-16","1","2015-03-16","1","1",,0,"This mark definitely represents the Enrollment domain"
"02-002","Clinical Site 02","02","42","F","White","Treatment B","TRTB","Ongoing","2015-03-16","2015-07-18","125","Y","1","Randomization","2015-05-16","62","2015-05-16","62","1",,0,"This mark definitely represents the Randomization domain"
"02-002","Clinical Site 02","02","42","F","White","Treatment B","TRTB","Ongoing","2015-03-16","2015-07-18","125","Y","1","Study Completion","2016-03-22","373","2016-03-22","373","1",,0,"This mark definitely represents the Study Completion domain"
"02-003","Clinical Site 02","02","27","F","Hispanic","Placebo","PLACEBO","Ongoing","2015-04-27","2015-12-14","232","Y","1","Adverse Events","2015-05-18","22","2015-08-04","100","1","N",1,"This mark definitely represents the Adverse Events domain"
"02-003","Clinical Site 02","02","27","F","Hispanic","Placebo","PLACEBO","Ongoing","2015-04-27","2015-12-14","232","Y","1","Adverse Events","2015-11-13","201","2016-04-21","361","2","N",1,"This mark definitely represents the Adverse Events domain"
"02-003","Clinical Site 02","02","27","F","Hispanic","Placebo","PLACEBO","Ongoing","2015-04-27","2015-12-14","232","Y","1","Adverse Events","2016-01-08","257","2016-02-25","305","3","Y",1,"This mark definitely represents the Adverse Events domain"
"02-003","Clinical Site 02","02","27","F","Hispanic","Placebo","PLACEBO","Ongoing","2015-04-27","2015-12-14","232","Y","1","Adverse Events","2016-01-12","261","2016-02-26","306","4","N",1,"This mark definitely represents the Adverse Events domain"
"02-003","Clinical Site 02","02","27","F","Hispanic","Placebo","PLACEBO","Ongoing","2015-04-27","2015-12-14","232","Y","1","Adverse Events","2016-02-27","307","2016-02-29","309","5","N",1,"This mark definitely represents the Adverse Events domain"
"02-003","Clinical Site 02","02","27","F","Hispanic","Placebo","PLACEBO","Ongoing","2015-04-27","2015-12-14","232","Y","1","Concomitant Medications","2015-05-06","10","2015-08-04","100","1","N",2,"This mark definitely represents the Concomitant Medications domain"
"02-003","Clinical Site 02","02","27","F","Hispanic","Placebo","PLACEBO","Ongoing","2015-04-27","2015-12-14","232","Y","1","Concomitant Medications","2015-05-19","23","2015-06-13","48","2","N",2,"This mark definitely represents the Concomitant Medications domain"
"02-003","Clinical Site 02","02","27","F","Hispanic","Placebo","PLACEBO","Ongoing","2015-04-27","2015-12-14","232","Y","1","Concomitant Medications","2015-09-10","137","2015-10-02","159","3","N",2,"This mark definitely represents the Concomitant Medications domain"
"02-003","Clinical Site 02","02","27","F","Hispanic","Placebo","PLACEBO","Ongoing","2015-04-27","2015-12-14","232","Y","1","Concomitant Medications","2016-01-06","255","2016-04-05","345","4","N",2,"This mark definitely represents the Concomitant Medications domain"
"02-003","Clinical Site 02","02","27","F","Hispanic","Placebo","PLACEBO","Ongoing","2015-04-27","2015-12-14","232","Y","1","Enrollment","2015-04-27","1","2015-04-27","1","1",,0,"This mark definitely represents the Enrollment domain"
"02-003","Clinical Site 02","02","27","F","Hispanic","Placebo","PLACEBO","Ongoing","2015-04-27","2015-12-14","232","Y","1","Randomization","2015-06-26","61","2015-06-26","61","1",,0,"This mark definitely represents the Randomization domain"
"02-003","Clinical Site 02","02","27","F","Hispanic","Placebo","PLACEBO","Ongoing","2015-04-27","2015-12-14","232","Y","1","Study Completion","2016-05-05","375","2016-05-05","375","1",,0,"This mark definitely represents the Study Completion domain"
"02-004","Clinical Site 02","02","21","F","White","Placebo","PLACEBO","Ongoing","2015-09-30","2015-10-21","22","Y","1","Adverse Events","2016-02-20","144","2016-07-31","306","1","Y",1,"This mark definitely represents the Adverse Events domain"
"02-004","Clinical Site 02","02","21","F","White","Placebo","PLACEBO","Ongoing","2015-09-30","2015-10-21","22","Y","1","Adverse Events","2016-03-04","157","2016-07-07","282","2","N",1,"This mark definitely represents the Adverse Events domain"
"02-004","Clinical Site 02","02","21","F","White","Placebo","PLACEBO","Ongoing","2015-09-30","2015-10-21","22","Y","1","Adverse Events","2016-06-22","267","2016-07-20","295","3","N",1,"This mark definitely represents the Adverse Events domain"
"02-004","Clinical Site 02","02","21","F","White","Placebo","PLACEBO","Ongoing","2015-09-30","2015-10-21","22","Y","1","Adverse Events","2016-06-22","267","2016-09-20","357","4","Y",1,"This mark definitely represents the Adverse Events domain"
"02-004","Clinical Site 02","02","21","F","White","Placebo","PLACEBO","Ongoing","2015-09-30","2015-10-21","22","Y","1","Concomitant Medications","2015-11-21","53","2016-03-13","166","1","N",2,"This mark definitely represents the Concomitant Medications domain"
"02-004","Clinical Site 02","02","21","F","White","Placebo","PLACEBO","Ongoing","2015-09-30","2015-10-21","22","Y","1","Concomitant Medications","2016-01-21","114","2016-08-23","329","2","N",2,"This mark definitely represents the Concomitant Medications domain"
"02-004","Clinical Site 02","02","21","F","White","Placebo","PLACEBO","Ongoing","2015-09-30","2015-10-21","22","Y","1","Enrollment","2015-09-30","1","2015-09-30","1","1",,0,"This mark definitely represents the Enrollment domain"
"02-004","Clinical Site 02","02","21","F","White","Placebo","PLACEBO","Ongoing","2015-09-30","2015-10-21","22","Y","1","Randomization","2015-11-20","52","2015-11-20","52","1",,0,"This mark definitely represents the Randomization domain"
"02-004","Clinical Site 02","02","21","F","White","Placebo","PLACEBO","Ongoing","2015-09-30","2015-10-21","22","Y","1","Study Completion","2016-10-05","372","2016-10-05","372","1",,0,"This mark definitely represents the Study Completion domain"
"02-005","Clinical Site 02","02","18","M","Hispanic","Treatment B","TRTB","Early Termination","2015-12-13","2016-07-21","222","Y","1","Adverse Events","2016-09-24","287","2016-11-07","331","1","N",1,"This mark definitely represents the Adverse Events domain"
"02-005","Clinical Site 02","02","18","M","Hispanic","Treatment B","TRTB","Early Termination","2015-12-13","2016-07-21","222","Y","1","Enrollment","2015-12-13","1","2015-12-13","1","1",,0,"This mark definitely represents the Enrollment domain"
"02-005","Clinical Site 02","02","18","M","Hispanic","Treatment B","TRTB","Early Termination","2015-12-13","2016-07-21","222","Y","1","Randomization","2016-02-10","60","2016-02-10","60","1",,0,"This mark definitely represents the Randomization domain"
"02-005","Clinical Site 02","02","18","M","Hispanic","Treatment B","TRTB","Early Termination","2015-12-13","2016-07-21","222","Y","1","Study Completion","2016-12-15","369","2016-12-15","369","1",,0,"This mark definitely represents the Study Completion domain"
"02-006","Clinical Site 02","02","36","M","White","Placebo","PLACEBO","Early Termination","2015-06-03","2015-09-18","108","Y","1","Adverse Events","2015-06-26","24","2016-05-16","349","1","Y",1,"This mark definitely represents the Adverse Events domain"
"02-006","Clinical Site 02","02","36","M","White","Placebo","PLACEBO","Early Termination","2015-06-03","2015-09-18","108","Y","1","Adverse Events","2015-12-10","191","2016-01-04","216","2","Y",1,"This mark definitely represents the Adverse Events domain"
"02-006","Clinical Site 02","02","36","M","White","Placebo","PLACEBO","Early Termination","2015-06-03","2015-09-18","108","Y","1","Concomitant Medications","2016-04-13","316","2016-04-30","333","1","Y",2,"This mark definitely represents the Concomitant Medications domain"
"02-006","Clinical Site 02","02","36","M","White","Placebo","PLACEBO","Early Termination","2015-06-03","2015-09-18","108","Y","1","Concomitant Medications","2016-05-18","351","2016-05-30","363","2","N",2,"This mark definitely represents the Concomitant Medications domain"
"02-006","Clinical Site 02","02","36","M","White","Placebo","PLACEBO","Early Termination","2015-06-03","2015-09-18","108","Y","1","Enrollment","2015-06-03","1","2015-06-03","1","1",,0,"This mark definitely represents the Enrollment domain"
"02-006","Clinical Site 02","02","36","M","White","Placebo","PLACEBO","Early Termination","2015-06-03","2015-09-18","108","Y","1","Randomization","2015-08-01","60","2015-08-01","60","1",,0,"This mark definitely represents the Randomization domain"
"02-006","Clinical Site 02","02","36","M","White","Placebo","PLACEBO","Early Termination","2015-06-03","2015-09-18","108","Y","1","Study Completion","2016-05-24","357","2016-05-24","357","1",,0,"This mark definitely represents the Study Completion domain"
"02-007","Clinical Site 02","02","31","M","Hispanic","Screen Failure","SCRNFAIL","Screen Failure","2015-09-01","2015-09-01","1","N","0","Enrollment","2015-09-01","1","2015-09-01","1","1",,0,"This mark definitely represents the Enrollment domain"
"02-008","Clinical Site 02","02","21","F","Other/Mixed","Treatment B","TRTB","Completed","2015-08-17","2016-08-23","373","Y","1","Adverse Events","2015-09-26","41","2015-12-24","130","1","N",1,"This mark definitely represents the Adverse Events domain"
"02-008","Clinical Site 02","02","21","F","Other/Mixed","Treatment B","TRTB","Completed","2015-08-17","2016-08-23","373","Y","1","Adverse Events","2016-07-26","345","2016-08-14","364","2","Y",1,"This mark definitely represents the Adverse Events domain"
"02-008","Clinical Site 02","02","21","F","Other/Mixed","Treatment B","TRTB","Completed","2015-08-17","2016-08-23","373","Y","1","Concomitant Medications","2015-08-18","2","2015-09-30","45","1","N",2,"This mark definitely represents the Concomitant Medications domain"
"02-008","Clinical Site 02","02","21","F","Other/Mixed","Treatment B","TRTB","Completed","2015-08-17","2016-08-23","373","Y","1","Concomitant Medications","2015-11-19","95","2016-04-02","230","2","Y",2,"This mark definitely represents the Concomitant Medications domain"
"02-008","Clinical Site 02","02","21","F","Other/Mixed","Treatment B","TRTB","Completed","2015-08-17","2016-08-23","373","Y","1","Concomitant Medications","2016-01-16","153","2016-05-27","285","3","Y",2,"This mark definitely represents the Concomitant Medications domain"
"02-008","Clinical Site 02","02","21","F","Other/Mixed","Treatment B","TRTB","Completed","2015-08-17","2016-08-23","373","Y","1","Enrollment","2015-08-17","1","2015-08-17","1","1",,0,"This mark definitely represents the Enrollment domain"
"02-008","Clinical Site 02","02","21","F","Other/Mixed","Treatment B","TRTB","Completed","2015-08-17","2016-08-23","373","Y","1","Randomization","2015-10-12","57","2015-10-12","57","1",,0,"This mark definitely represents the Randomization domain"
"02-008","Clinical Site 02","02","21","F","Other/Mixed","Treatment B","TRTB","Completed","2015-08-17","2016-08-23","373","Y","1","Study Completion","2016-08-14","364","2016-08-14","364","1",,0,"This mark definitely represents the Study Completion domain"
"02-009","Clinical Site 02","02","27","F","Black","Treatment B","TRTB","Ongoing","2015-12-13","2016-07-30","231","Y","1","Adverse Events","2016-05-11","151","2016-08-30","262","1","Y",1,"This mark definitely represents the Adverse Events domain"
"02-009","Clinical Site 02","02","27","F","Black","Treatment B","TRTB","Ongoing","2015-12-13","2016-07-30","231","Y","1","Adverse Events","2016-07-17","218","2016-09-21","284","2","N",1,"This mark definitely represents the Adverse Events domain"
"02-009","Clinical Site 02","02","27","F","Black","Treatment B","TRTB","Ongoing","2015-12-13","2016-07-30","231","Y","1","Concomitant Medications","2016-04-10","120","2016-06-16","187","1","N",2,"This mark definitely represents the Concomitant Medications domain"
"02-009","Clinical Site 02","02","27","F","Black","Treatment B","TRTB","Ongoing","2015-12-13","2016-07-30","231","Y","1","Concomitant Medications","2016-06-21","192","2016-10-05","298","2","N",2,"This mark definitely represents the Concomitant Medications domain"
"02-009","Clinical Site 02","02","27","F","Black","Treatment B","TRTB","Ongoing","2015-12-13","2016-07-30","231","Y","1","Enrollment","2015-12-13","1","2015-12-13","1","1",,0,"This mark definitely represents the Enrollment domain"
"02-009","Clinical Site 02","02","27","F","Black","Treatment B","TRTB","Ongoing","2015-12-13","2016-07-30","231","Y","1","Randomization","2016-02-04","54","2016-02-04","54","1",,0,"This mark definitely represents the Randomization domain"
"02-009","Clinical Site 02","02","27","F","Black","Treatment B","TRTB","Ongoing","2015-12-13","2016-07-30","231","Y","1","Study Completion","2016-12-09","363","2016-12-09","363","1",,0,"This mark definitely represents the Study Completion domain"
"02-010","Clinical Site 02","02","36","F","White","Treatment B","TRTB","Completed","2015-07-26","2016-07-18","359","Y","1","Adverse Events","2015-08-05","11","2016-02-26","216","1","N",1,"This mark definitely represents the Adverse Events domain"
"02-010","Clinical Site 02","02","36","F","White","Treatment B","TRTB","Completed","2015-07-26","2016-07-18","359","Y","1","Adverse Events","2015-08-22","28","2015-12-16","144","2","Y",1,"This mark definitely represents the Adverse Events domain"
"02-010","Clinical Site 02","02","36","F","White","Treatment B","TRTB","Completed","2015-07-26","2016-07-18","359","Y","1","Adverse Events","2015-09-18","55","2015-11-09","107","3","Y",1,"This mark definitely represents the Adverse Events domain"
"02-010","Clinical Site 02","02","36","F","White","Treatment B","TRTB","Completed","2015-07-26","2016-07-18","359","Y","1","Adverse Events","2015-12-25","153","2016-04-04","254","4","N",1,"This mark definitely represents the Adverse Events domain"
"02-010","Clinical Site 02","02","36","F","White","Treatment B","TRTB","Completed","2015-07-26","2016-07-18","359","Y","1","Adverse Events","2016-04-19","269","2016-05-05","285","5","N",1,"This mark definitely represents the Adverse Events domain"
"02-010","Clinical Site 02","02","36","F","White","Treatment B","TRTB","Completed","2015-07-26","2016-07-18","359","Y","1","Concomitant Medications","2015-08-29","35","2015-09-16","53","1","Y",2,"This mark definitely represents the Concomitant Medications domain"
"02-010","Clinical Site 02","02","36","F","White","Treatment B","TRTB","Completed","2015-07-26","2016-07-18","359","Y","1","Concomitant Medications","2015-12-31","159","2016-02-06","196","2","N",2,"This mark definitely represents the Concomitant Medications domain"
"02-010","Clinical Site 02","02","36","F","White","Treatment B","TRTB","Completed","2015-07-26","2016-07-18","359","Y","1","Concomitant Medications","2016-03-27","246","2016-07-22","363","3","N",2,"This mark definitely represents the Concomitant Medications domain"
"02-010","Clinical Site 02","02","36","F","White","Treatment B","TRTB","Completed","2015-07-26","2016-07-18","359","Y","1","Concomitant Medications","2016-04-30","280","2016-05-26","306","4","Y",2,"This mark definitely represents the Concomitant Medications domain"
"02-010","Clinical Site 02","02","36","F","White","Treatment B","TRTB","Completed","2015-07-26","2016-07-18","359","Y","1","Enrollment","2015-07-26","1","2015-07-26","1","1",,0,"This mark definitely represents the Enrollment domain"
"02-010","Clinical Site 02","02","36","F","White","Treatment B","TRTB","Completed","2015-07-26","2016-07-18","359","Y","1","Randomization","2015-09-13","50","2015-09-13","50","1",,0,"This mark definitely represents the Randomization domain"
"02-010","Clinical Site 02","02","36","F","White","Treatment B","TRTB","Completed","2015-07-26","2016-07-18","359","Y","1","Study Completion","2016-07-26","367","2016-07-26","367","1",,0,"This mark definitely represents the Study Completion domain"
"02-011","Clinical Site 02","02","40","F","Other/Mixed","Treatment A","TRTA","Ongoing","2015-10-08","2015-10-13","6","Y","1","Adverse Events","2016-05-24","230","2016-09-13","342","1","N",1,"This mark definitely represents the Adverse Events domain"
"02-011","Clinical Site 02","02","40","F","Other/Mixed","Treatment A","TRTA","Ongoing","2015-10-08","2015-10-13","6","Y","1","Adverse Events","2016-06-14","251","2016-09-30","359","2","Y",1,"This mark definitely represents the Adverse Events domain"
"02-011","Clinical Site 02","02","40","F","Other/Mixed","Treatment A","TRTA","Ongoing","2015-10-08","2015-10-13","6","Y","1","Adverse Events","2016-09-07","336","2016-09-29","358","3","N",1,"This mark definitely represents the Adverse Events domain"
"02-011","Clinical Site 02","02","40","F","Other/Mixed","Treatment A","TRTA","Ongoing","2015-10-08","2015-10-13","6","Y","1","Enrollment","2015-10-08","1","2015-10-08","1","1",,0,"This mark definitely represents the Enrollment domain"
"02-011","Clinical Site 02","02","40","F","Other/Mixed","Treatment A","TRTA","Ongoing","2015-10-08","2015-10-13","6","Y","1","Randomization","2015-11-27","51","2015-11-27","51","1",,0,"This mark definitely represents the Randomization domain"
"02-011","Clinical Site 02","02","40","F","Other/Mixed","Treatment A","TRTA","Ongoing","2015-10-08","2015-10-13","6","Y","1","Study Completion","2016-10-14","373","2016-10-14","373","1",,0,"This mark definitely represents the Study Completion domain"
"02-012","Clinical Site 02","02","37","F","Other/Mixed","Treatment B","TRTB","Ongoing","2015-09-30","2016-07-25","300","Y","1","Adverse Events","2015-10-15","16","2015-10-18","19","1","Y",1,"This mark definitely represents the Adverse Events domain"
"02-012","Clinical Site 02","02","37","F","Other/Mixed","Treatment B","TRTB","Ongoing","2015-09-30","2016-07-25","300","Y","1","Adverse Events","2016-04-16","200","2016-08-17","323","2","N",1,"This mark definitely represents the Adverse Events domain"
"02-012","Clinical Site 02","02","37","F","Other/Mixed","Treatment B","TRTB","Ongoing","2015-09-30","2016-07-25","300","Y","1","Adverse Events","2016-05-18","232","2016-07-17","292","3","Y",1,"This mark definitely represents the Adverse Events domain"
"02-012","Clinical Site 02","02","37","F","Other/Mixed","Treatment B","TRTB","Ongoing","2015-09-30","2016-07-25","300","Y","1","Adverse Events","2016-07-09","284","2016-08-09","315","4","Y",1,"This mark definitely represents the Adverse Events domain"
"02-012","Clinical Site 02","02","37","F","Other/Mixed","Treatment B","TRTB","Ongoing","2015-09-30","2016-07-25","300","Y","1","Concomitant Medications","2016-03-24","177","2016-07-08","283","1","Y",2,"This mark definitely represents the Concomitant Medications domain"
"02-012","Clinical Site 02","02","37","F","Other/Mixed","Treatment B","TRTB","Ongoing","2015-09-30","2016-07-25","300","Y","1","Concomitant Medications","2016-04-04","188","2016-04-05","189","2","Y",2,"This mark definitely represents the Concomitant Medications domain"
"02-012","Clinical Site 02","02","37","F","Other/Mixed","Treatment B","TRTB","Ongoing","2015-09-30","2016-07-25","300","Y","1","Concomitant Medications","2016-04-30","214","2016-09-26","363","3","Y",2,"This mark definitely represents the Concomitant Medications domain"
"02-012","Clinical Site 02","02","37","F","Other/Mixed","Treatment B","TRTB","Ongoing","2015-09-30","2016-07-25","300","Y","1","Enrollment","2015-09-30","1","2015-09-30","1","1",,0,"This mark definitely represents the Enrollment domain"
"02-012","Clinical Site 02","02","37","F","Other/Mixed","Treatment B","TRTB","Ongoing","2015-09-30","2016-07-25","300","Y","1","Randomization","2015-11-26","58","2015-11-26","58","1",,0,"This mark definitely represents the Randomization domain"
"02-012","Clinical Site 02","02","37","F","Other/Mixed","Treatment B","TRTB","Ongoing","2015-09-30","2016-07-25","300","Y","1","Study Completion","2016-09-18","355","2016-09-18","355","1",,0,"This mark definitely represents the Study Completion domain"
"02-013","Clinical Site 02","02","32","M","White","Treatment B","TRTB","Completed","2015-12-29","2016-12-20","358","Y","1","Adverse Events","2016-01-17","20","2016-08-06","222","1","N",1,"This mark definitely represents the Adverse Events domain"
"02-013","Clinical Site 02","02","32","M","White","Treatment B","TRTB","Completed","2015-12-29","2016-12-20","358","Y","1","Adverse Events","2016-09-20","267","2016-11-27","335","2","Y",1,"This mark definitely represents the Adverse Events domain"
"02-013","Clinical Site 02","02","32","M","White","Treatment B","TRTB","Completed","2015-12-29","2016-12-20","358","Y","1","Adverse Events","2016-09-24","271","2016-11-13","321","3","N",1,"This mark definitely represents the Adverse Events domain"
"02-013","Clinical Site 02","02","32","M","White","Treatment B","TRTB","Completed","2015-12-29","2016-12-20","358","Y","1","Adverse Events","2016-12-05","343","2016-12-10","348","4","N",1,"This mark definitely represents the Adverse Events domain"
"02-013","Clinical Site 02","02","32","M","White","Treatment B","TRTB","Completed","2015-12-29","2016-12-20","358","Y","1","Concomitant Medications","2016-03-23","86","2016-12-06","344","1","Y",2,"This mark definitely represents the Concomitant Medications domain"
"02-013","Clinical Site 02","02","32","M","White","Treatment B","TRTB","Completed","2015-12-29","2016-12-20","358","Y","1","Concomitant Medications","2016-03-28","91","2016-10-26","303","2","N",2,"This mark definitely represents the Concomitant Medications domain"
"02-013","Clinical Site 02","02","32","M","White","Treatment B","TRTB","Completed","2015-12-29","2016-12-20","358","Y","1","Concomitant Medications","2016-08-10","226","2016-09-07","254","3","N",2,"This mark definitely represents the Concomitant Medications domain"
"02-013","Clinical Site 02","02","32","M","White","Treatment B","TRTB","Completed","2015-12-29","2016-12-20","358","Y","1","Concomitant Medications","2016-12-19","357","2016-12-27","365","4","Y",2,"This mark definitely represents the Concomitant Medications domain"
"02-013","Clinical Site 02","02","32","M","White","Treatment B","TRTB","Completed","2015-12-29","2016-12-20","358","Y","1","Concomitant Medications","2016-12-22","360","2016-12-24","362","5","N",2,"This mark definitely represents the Concomitant Medications domain"
"02-013","Clinical Site 02","02","32","M","White","Treatment B","TRTB","Completed","2015-12-29","2016-12-20","358","Y","1","Enrollment","2015-12-29","1","2015-12-29","1","1",,0,"This mark definitely represents the Enrollment domain"
"02-013","Clinical Site 02","02","32","M","White","Treatment B","TRTB","Completed","2015-12-29","2016-12-20","358","Y","1","Randomization","2016-02-24","58","2016-02-24","58","1",,0,"This mark definitely represents the Randomization domain"
"02-013","Clinical Site 02","02","32","M","White","Treatment B","TRTB","Completed","2015-12-29","2016-12-20","358","Y","1","Study Completion","2016-12-18","356","2016-12-18","356","1",,0,"This mark definitely represents the Study Completion domain"
"02-014","Clinical Site 02","02","19","F","Other/Mixed","Treatment A","TRTA","Ongoing","2015-04-13","2015-09-19","160","Y","1","Adverse Events","2015-04-20","8","2015-08-18","128","1","Y",1,"This mark definitely represents the Adverse Events domain"
"02-014","Clinical Site 02","02","19","F","Other/Mixed","Treatment A","TRTA","Ongoing","2015-04-13","2015-09-19","160","Y","1","Adverse Events","2015-10-15","186","2015-12-14","246","2","N",1,"This mark definitely represents the Adverse Events domain"
"02-014","Clinical Site 02","02","19","F","Other/Mixed","Treatment A","TRTA","Ongoing","2015-04-13","2015-09-19","160","Y","1","Adverse Events","2015-12-19","251","2016-02-25","319","3","Y",1,"This mark definitely represents the Adverse Events domain"
"02-014","Clinical Site 02","02","19","F","Other/Mixed","Treatment A","TRTA","Ongoing","2015-04-13","2015-09-19","160","Y","1","Adverse Events","2016-03-06","329","2016-03-26","349","4","N",1,"This mark definitely represents the Adverse Events domain"
"02-014","Clinical Site 02","02","19","F","Other/Mixed","Treatment A","TRTA","Ongoing","2015-04-13","2015-09-19","160","Y","1","Enrollment","2015-04-13","1","2015-04-13","1","1",,0,"This mark definitely represents the Enrollment domain"
"02-014","Clinical Site 02","02","19","F","Other/Mixed","Treatment A","TRTA","Ongoing","2015-04-13","2015-09-19","160","Y","1","Randomization","2015-06-05","54","2015-06-05","54","1",,0,"This mark definitely represents the Randomization domain"
"02-014","Clinical Site 02","02","19","F","Other/Mixed","Treatment A","TRTA","Ongoing","2015-04-13","2015-09-19","160","Y","1","Study Completion","2016-04-16","370","2016-04-16","370","1",,0,"This mark definitely represents the Study Completion domain"
"02-015","Clinical Site 02","02","29","M","White","Placebo","PLACEBO","Ongoing","2015-02-24","2015-05-14","80","Y","1","Adverse Events","2015-12-09","289","2015-12-25","305","1","Y",1,"This mark definitely represents the Adverse Events domain"
"02-015","Clinical Site 02","02","29","M","White","Placebo","PLACEBO","Ongoing","2015-02-24","2015-05-14","80","Y","1","Concomitant Medications","2015-05-06","72","2015-11-22","272","1","Y",2,"This mark definitely represents the Concomitant Medications domain"
"02-015","Clinical Site 02","02","29","M","White","Placebo","PLACEBO","Ongoing","2015-02-24","2015-05-14","80","Y","1","Concomitant Medications","2015-05-25","91","2016-02-15","357","2","N",2,"This mark definitely represents the Concomitant Medications domain"
"02-015","Clinical Site 02","02","29","M","White","Placebo","PLACEBO","Ongoing","2015-02-24","2015-05-14","80","Y","1","Concomitant Medications","2015-06-01","98","2015-09-06","195","3","N",2,"This mark definitely represents the Concomitant Medications domain"
"02-015","Clinical Site 02","02","29","M","White","Placebo","PLACEBO","Ongoing","2015-02-24","2015-05-14","80","Y","1","Concomitant Medications","2015-12-01","281","2016-01-30","341","4","N",2,"This mark definitely represents the Concomitant Medications domain"
"02-015","Clinical Site 02","02","29","M","White","Placebo","PLACEBO","Ongoing","2015-02-24","2015-05-14","80","Y","1","Enrollment","2015-02-24","1","2015-02-24","1","1",,0,"This mark definitely represents the Enrollment domain"
"02-015","Clinical Site 02","02","29","M","White","Placebo","PLACEBO","Ongoing","2015-02-24","2015-05-14","80","Y","1","Randomization","2015-04-17","53","2015-04-17","53","1",,0,"This mark definitely represents the Randomization domain"
"02-015","Clinical Site 02","02","29","M","White","Placebo","PLACEBO","Ongoing","2015-02-24","2015-05-14","80","Y","1","Study Completion","2016-02-20","362","2016-02-20","362","1",,0,"This mark definitely represents the Study Completion domain"
"02-016","Clinical Site 02","02","25","M","Hispanic","Screen Failure","SCRNFAIL","Screen Failure","2015-10-24","2015-10-24","1","N","0","Enrollment","2015-10-24","1","2015-10-24","1","1",,0,"This mark definitely represents the Enrollment domain"
"02-017","Clinical Site 02","02","33","M","White","Placebo","PLACEBO","Completed","2015-04-06","2016-03-27","357","Y","1","Adverse Events","2015-07-07","93","2015-08-23","140","1","N",1,"This mark definitely represents the Adverse Events domain"
"02-017","Clinical Site 02","02","33","M","White","Placebo","PLACEBO","Completed","2015-04-06","2016-03-27","357","Y","1","Adverse Events","2015-10-06","184","2015-10-22","200","2","N",1,"This mark definitely represents the Adverse Events domain"
"02-017","Clinical Site 02","02","33","M","White","Placebo","PLACEBO","Completed","2015-04-06","2016-03-27","357","Y","1","Concomitant Medications","2015-10-21","199","2016-02-09","310","1","Y",2,"This mark definitely represents the Concomitant Medications domain"
"02-017","Clinical Site 02","02","33","M","White","Placebo","PLACEBO","Completed","2015-04-06","2016-03-27","357","Y","1","Concomitant Medications","2016-03-06","336","2016-03-07","337","2","Y",2,"This mark definitely represents the Concomitant Medications domain"
"02-017","Clinical Site 02","02","33","M","White","Placebo","PLACEBO","Completed","2015-04-06","2016-03-27","357","Y","1","Enrollment","2015-04-06","1","2015-04-06","1","1",,0,"This mark definitely represents the Enrollment domain"
"02-017","Clinical Site 02","02","33","M","White","Placebo","PLACEBO","Completed","2015-04-06","2016-03-27","357","Y","1","Randomization","2015-06-03","59","2015-06-03","59","1",,0,"This mark definitely represents the Randomization domain"
"02-017","Clinical Site 02","02","33","M","White","Placebo","PLACEBO","Completed","2015-04-06","2016-03-27","357","Y","1","Study Completion","2016-03-25","355","2016-03-25","355","1",,0,"This mark definitely represents the Study Completion domain"
"02-018","Clinical Site 02","02","19","F","White","Placebo","PLACEBO","Completed","2015-11-23","2016-11-21","365","Y","1","Adverse Events","2016-06-17","208","2016-09-01","284","1","N",1,"This mark definitely represents the Adverse Events domain"
"02-018","Clinical Site 02","02","19","F","White","Placebo","PLACEBO","Completed","2015-11-23","2016-11-21","365","Y","1","Adverse Events","2016-11-19","363","2016-11-19","363","2","N",1,"This mark definitely represents the Adverse Events domain"
"02-018","Clinical Site 02","02","19","F","White","Placebo","PLACEBO","Completed","2015-11-23","2016-11-21","365","Y","1","Concomitant Medications","2015-12-12","20","2016-04-08","138","1","Y",2,"This mark definitely represents the Concomitant Medications domain"
"02-018","Clinical Site 02","02","19","F","White","Placebo","PLACEBO","Completed","2015-11-23","2016-11-21","365","Y","1","Enrollment","2015-11-23","1","2015-11-23","1","1",,0,"This mark definitely represents the Enrollment domain"
"02-018","Clinical Site 02","02","19","F","White","Placebo","PLACEBO","Completed","2015-11-23","2016-11-21","365","Y","1","Randomization","2016-01-16","55","2016-01-16","55","1",,0,"This mark definitely represents the Randomization domain"
"02-018","Clinical Site 02","02","19","F","White","Placebo","PLACEBO","Completed","2015-11-23","2016-11-21","365","Y","1","Study Completion","2016-11-13","357","2016-11-13","357","1",,0,"This mark definitely represents the Study Completion domain"
"02-019","Clinical Site 02","02","49","F","Black","Placebo","PLACEBO","Ongoing","2015-02-16","2015-09-27","224","Y","1","Concomitant Medications","2015-02-24","9","2015-07-23","158","1","N",2,"This mark definitely represents the Concomitant Medications domain"
"02-019","Clinical Site 02","02","49","F","Black","Placebo","PLACEBO","Ongoing","2015-02-16","2015-09-27","224","Y","1","Concomitant Medications","2015-05-01","75","2016-01-02","321","2","Y",2,"This mark definitely represents the Concomitant Medications domain"
"02-019","Clinical Site 02","02","49","F","Black","Placebo","PLACEBO","Ongoing","2015-02-16","2015-09-27","224","Y","1","Concomitant Medications","2015-09-06","203","2015-10-09","236","3","Y",2,"This mark definitely represents the Concomitant Medications domain"
"02-019","Clinical Site 02","02","49","F","Black","Placebo","PLACEBO","Ongoing","2015-02-16","2015-09-27","224","Y","1","Enrollment","2015-02-16","1","2015-02-16","1","1",,0,"This mark definitely represents the Enrollment domain"
"02-019","Clinical Site 02","02","49","F","Black","Placebo","PLACEBO","Ongoing","2015-02-16","2015-09-27","224","Y","1","Randomization","2015-04-06","50","2015-04-06","50","1",,0,"This mark definitely represents the Randomization domain"
"02-019","Clinical Site 02","02","49","F","Black","Placebo","PLACEBO","Ongoing","2015-02-16","2015-09-27","224","Y","1","Study Completion","2016-02-13","363","2016-02-13","363","1",,0,"This mark definitely represents the Study Completion domain"
"02-020","Clinical Site 02","02","23","F","White","Treatment A","TRTA","Early Termination","2015-07-14","2016-06-18","341","Y","1","Adverse Events","2016-07-07","360","2016-07-11","364","1","Y",1,"This mark definitely represents the Adverse Events domain"
"02-020","Clinical Site 02","02","23","F","White","Treatment A","TRTA","Early Termination","2015-07-14","2016-06-18","341","Y","1","Concomitant Medications","2016-03-26","257","2016-03-31","262","1","Y",2,"This mark definitely represents the Concomitant Medications domain"
"02-020","Clinical Site 02","02","23","F","White","Treatment A","TRTA","Early Termination","2015-07-14","2016-06-18","341","Y","1","Concomitant Medications","2016-05-29","321","2016-07-01","354","2","Y",2,"This mark definitely represents the Concomitant Medications domain"
"02-020","Clinical Site 02","02","23","F","White","Treatment A","TRTA","Early Termination","2015-07-14","2016-06-18","341","Y","1","Enrollment","2015-07-14","1","2015-07-14","1","1",,0,"This mark definitely represents the Enrollment domain"
"02-020","Clinical Site 02","02","23","F","White","Treatment A","TRTA","Early Termination","2015-07-14","2016-06-18","341","Y","1","Randomization","2015-09-03","52","2015-09-03","52","1",,0,"This mark definitely represents the Randomization domain"
"02-020","Clinical Site 02","02","23","F","White","Treatment A","TRTA","Early Termination","2015-07-14","2016-06-18","341","Y","1","Study Completion","2016-07-12","365","2016-07-12","365","1",,0,"This mark definitely represents the Study Completion domain"
"02-021","Clinical Site 02","02","53","F","Black","Treatment B","TRTB","Ongoing","2015-10-01","2016-09-03","339","Y","1","Adverse Events","2015-11-09","40","2016-03-31","183","1","Y",1,"This mark definitely represents the Adverse Events domain"
"02-021","Clinical Site 02","02","53","F","Black","Treatment B","TRTB","Ongoing","2015-10-01","2016-09-03","339","Y","1","Adverse Events","2016-02-08","131","2016-09-15","351","2","N",1,"This mark definitely represents the Adverse Events domain"
"02-021","Clinical Site 02","02","53","F","Black","Treatment B","TRTB","Ongoing","2015-10-01","2016-09-03","339","Y","1","Adverse Events","2016-06-10","254","2016-09-26","362","3","N",1,"This mark definitely represents the Adverse Events domain"
"02-021","Clinical Site 02","02","53","F","Black","Treatment B","TRTB","Ongoing","2015-10-01","2016-09-03","339","Y","1","Concomitant Medications","2016-03-09","161","2016-08-08","313","1","Y",2,"This mark definitely represents the Concomitant Medications domain"
"02-021","Clinical Site 02","02","53","F","Black","Treatment B","TRTB","Ongoing","2015-10-01","2016-09-03","339","Y","1","Concomitant Medications","2016-03-30","182","2016-09-27","363","2","Y",2,"This mark definitely represents the Concomitant Medications domain"
"02-021","Clinical Site 02","02","53","F","Black","Treatment B","TRTB","Ongoing","2015-10-01","2016-09-03","339","Y","1","Concomitant Medications","2016-09-14","350","2016-09-22","358","3","N",2,"This mark definitely represents the Concomitant Medications domain"
"02-021","Clinical Site 02","02","53","F","Black","Treatment B","TRTB","Ongoing","2015-10-01","2016-09-03","339","Y","1","Enrollment","2015-10-01","1","2015-10-01","1","1",,0,"This mark definitely represents the Enrollment domain"
"02-021","Clinical Site 02","02","53","F","Black","Treatment B","TRTB","Ongoing","2015-10-01","2016-09-03","339","Y","1","Randomization","2015-11-22","53","2015-11-22","53","1",,0,"This mark definitely represents the Randomization domain"
"02-021","Clinical Site 02","02","53","F","Black","Treatment B","TRTB","Ongoing","2015-10-01","2016-09-03","339","Y","1","Study Completion","2016-10-04","370","2016-10-04","370","1",,0,"This mark definitely represents the Study Completion domain"
"02-022","Clinical Site 02","02","30","M","White","Treatment B","TRTB","Ongoing","2015-12-27","2016-03-02","67","Y","1","Adverse Events","2016-02-21","57","2016-10-02","281","1","N",1,"This mark definitely represents the Adverse Events domain"
"02-022","Clinical Site 02","02","30","M","White","Treatment B","TRTB","Ongoing","2015-12-27","2016-03-02","67","Y","1","Concomitant Medications","2016-02-24","60","2016-09-04","253","1","Y",2,"This mark definitely represents the Concomitant Medications domain"
"02-022","Clinical Site 02","02","30","M","White","Treatment B","TRTB","Ongoing","2015-12-27","2016-03-02","67","Y","1","Concomitant Medications","2016-05-18","144","2016-10-27","306","2","Y",2,"This mark definitely represents the Concomitant Medications domain"
"02-022","Clinical Site 02","02","30","M","White","Treatment B","TRTB","Ongoing","2015-12-27","2016-03-02","67","Y","1","Concomitant Medications","2016-08-21","239","2016-08-21","239","3","N",2,"This mark definitely represents the Concomitant Medications domain"
"02-022","Clinical Site 02","02","30","M","White","Treatment B","TRTB","Ongoing","2015-12-27","2016-03-02","67","Y","1","Concomitant Medications","2016-09-23","272","2016-10-27","306","4","N",2,"This mark definitely represents the Concomitant Medications domain"
"02-022","Clinical Site 02","02","30","M","White","Treatment B","TRTB","Ongoing","2015-12-27","2016-03-02","67","Y","1","Concomitant Medications","2016-12-19","359","2016-12-19","359","5","N",2,"This mark definitely represents the Concomitant Medications domain"
"02-022","Clinical Site 02","02","30","M","White","Treatment B","TRTB","Ongoing","2015-12-27","2016-03-02","67","Y","1","Enrollment","2015-12-27","1","2015-12-27","1","1",,0,"This mark definitely represents the Enrollment domain"
"02-022","Clinical Site 02","02","30","M","White","Treatment B","TRTB","Ongoing","2015-12-27","2016-03-02","67","Y","1","Randomization","2016-02-15","51","2016-02-15","51","1",,0,"This mark definitely represents the Randomization domain"
"02-022","Clinical Site 02","02","30","M","White","Treatment B","TRTB","Ongoing","2015-12-27","2016-03-02","67","Y","1","Study Completion","2016-12-16","356","2016-12-16","356","1",,0,"This mark definitely represents the Study Completion domain"
"02-023","Clinical Site 02","02","45","F","Black","Treatment A","TRTA","Completed","2015-12-06","2016-12-09","370","Y","1","Adverse Events","2016-01-14","40","2016-10-16","316","1","N",1,"This mark definitely represents the Adverse Events domain"
"02-023","Clinical Site 02","02","45","F","Black","Treatment A","TRTA","Completed","2015-12-06","2016-12-09","370","Y","1","Adverse Events","2016-01-22","48","2016-04-09","126","2","Y",1,"This mark definitely represents the Adverse Events domain"
"02-023","Clinical Site 02","02","45","F","Black","Treatment A","TRTA","Completed","2015-12-06","2016-12-09","370","Y","1","Adverse Events","2016-06-12","190","2016-11-20","351","3","Y",1,"This mark definitely represents the Adverse Events domain"
"02-023","Clinical Site 02","02","45","F","Black","Treatment A","TRTA","Completed","2015-12-06","2016-12-09","370","Y","1","Adverse Events","2016-10-10","310","2016-11-09","340","4","N",1,"This mark definitely represents the Adverse Events domain"
"02-023","Clinical Site 02","02","45","F","Black","Treatment A","TRTA","Completed","2015-12-06","2016-12-09","370","Y","1","Concomitant Medications","2016-08-28","267","2016-09-25","295","1","N",2,"This mark definitely represents the Concomitant Medications domain"
"02-023","Clinical Site 02","02","45","F","Black","Treatment A","TRTA","Completed","2015-12-06","2016-12-09","370","Y","1","Enrollment","2015-12-06","1","2015-12-06","1","1",,0,"This mark definitely represents the Enrollment domain"
"02-023","Clinical Site 02","02","45","F","Black","Treatment A","TRTA","Completed","2015-12-06","2016-12-09","370","Y","1","Randomization","2016-02-03","60","2016-02-03","60","1",,0,"This mark definitely represents the Randomization domain"
"02-023","Clinical Site 02","02","45","F","Black","Treatment A","TRTA","Completed","2015-12-06","2016-12-09","370","Y","1","Study Completion","2016-11-26","357","2016-11-26","357","1",,0,"This mark definitely represents the Study Completion domain"
"02-024","Clinical Site 02","02","45","M","White","Treatment A","TRTA","Ongoing","2015-02-28","2015-07-20","143","Y","1","Adverse Events","2015-05-25","87","2015-09-19","204","1","Y",1,"This mark definitely represents the Adverse Events domain"
"02-024","Clinical Site 02","02","45","M","White","Treatment A","TRTA","Ongoing","2015-02-28","2015-07-20","143","Y","1","Adverse Events","2015-08-05","159","2015-11-08","254","2","Y",1,"This mark definitely represents the Adverse Events domain"
"02-024","Clinical Site 02","02","45","M","White","Treatment A","TRTA","Ongoing","2015-02-28","2015-07-20","143","Y","1","Adverse Events","2015-11-21","267","2016-02-25","363","3","Y",1,"This mark definitely represents the Adverse Events domain"
"02-024","Clinical Site 02","02","45","M","White","Treatment A","TRTA","Ongoing","2015-02-28","2015-07-20","143","Y","1","Adverse Events","2016-02-11","349","2016-02-17","355","4","Y",1,"This mark definitely represents the Adverse Events domain"
"02-024","Clinical Site 02","02","45","M","White","Treatment A","TRTA","Ongoing","2015-02-28","2015-07-20","143","Y","1","Concomitant Medications","2015-08-03","157","2015-12-06","282","1","N",2,"This mark definitely represents the Concomitant Medications domain"
"02-024","Clinical Site 02","02","45","M","White","Treatment A","TRTA","Ongoing","2015-02-28","2015-07-20","143","Y","1","Enrollment","2015-02-28","1","2015-02-28","1","1",,0,"This mark definitely represents the Enrollment domain"
"02-024","Clinical Site 02","02","45","M","White","Treatment A","TRTA","Ongoing","2015-02-28","2015-07-20","143","Y","1","Randomization","2015-04-27","59","2015-04-27","59","1",,0,"This mark definitely represents the Randomization domain"
"02-024","Clinical Site 02","02","45","M","White","Treatment A","TRTA","Ongoing","2015-02-28","2015-07-20","143","Y","1","Study Completion","2016-02-27","365","2016-02-27","365","1",,0,"This mark definitely represents the Study Completion domain"
"02-025","Clinical Site 02","02","36","F","Black","Screen Failure","SCRNFAIL","Screen Failure","2015-08-04","2015-08-04","1","N","0","Enrollment","2015-08-04","1","2015-08-04","1","1",,0,"This mark definitely represents the Enrollment domain"
"02-026","Clinical Site 02","02","27","F","Black","Placebo","PLACEBO","Completed","2015-04-03","2016-04-05","369","Y","1","Adverse Events","2015-10-04","185","2016-01-28","301","1","N",1,"This mark definitely represents the Adverse Events domain"
"02-026","Clinical Site 02","02","27","F","Black","Placebo","PLACEBO","Completed","2015-04-03","2016-04-05","369","Y","1","Concomitant Medications","2015-04-23","21","2015-08-15","135","1","Y",2,"This mark definitely represents the Concomitant Medications domain"
"02-026","Clinical Site 02","02","27","F","Black","Placebo","PLACEBO","Completed","2015-04-03","2016-04-05","369","Y","1","Concomitant Medications","2015-04-26","24","2016-03-16","349","2","Y",2,"This mark definitely represents the Concomitant Medications domain"
"02-026","Clinical Site 02","02","27","F","Black","Placebo","PLACEBO","Completed","2015-04-03","2016-04-05","369","Y","1","Concomitant Medications","2015-06-20","79","2015-07-02","91","3","N",2,"This mark definitely represents the Concomitant Medications domain"
"02-026","Clinical Site 02","02","27","F","Black","Placebo","PLACEBO","Completed","2015-04-03","2016-04-05","369","Y","1","Concomitant Medications","2015-09-19","170","2015-11-21","233","4","Y",2,"This mark definitely represents the Concomitant Medications domain"
"02-026","Clinical Site 02","02","27","F","Black","Placebo","PLACEBO","Completed","2015-04-03","2016-04-05","369","Y","1","Enrollment","2015-04-03","1","2015-04-03","1","1",,0,"This mark definitely represents the Enrollment domain"
"02-026","Clinical Site 02","02","27","F","Black","Placebo","PLACEBO","Completed","2015-04-03","2016-04-05","369","Y","1","Randomization","2015-05-21","49","2015-05-21","49","1",,0,"This mark definitely represents the Randomization domain"
"02-026","Clinical Site 02","02","27","F","Black","Placebo","PLACEBO","Completed","2015-04-03","2016-04-05","369","Y","1","Study Completion","2016-03-25","358","2016-03-25","358","1",,0,"This mark definitely represents the Study Completion domain"
"02-027","Clinical Site 02","02","36","F","Hispanic","Treatment B","TRTB","Completed","2015-03-08","2016-03-02","361","Y","1","Adverse Events","2015-04-05","29","2016-03-03","362","1","N",1,"This mark definitely represents the Adverse Events domain"
"02-027","Clinical Site 02","02","36","F","Hispanic","Treatment B","TRTB","Completed","2015-03-08","2016-03-02","361","Y","1","Adverse Events","2015-05-22","76","2015-11-09","247","2","N",1,"This mark definitely represents the Adverse Events domain"
"02-027","Clinical Site 02","02","36","F","Hispanic","Treatment B","TRTB","Completed","2015-03-08","2016-03-02","361","Y","1","Adverse Events","2015-07-26","141","2016-02-03","333","3","Y",1,"This mark definitely represents the Adverse Events domain"
"02-027","Clinical Site 02","02","36","F","Hispanic","Treatment B","TRTB","Completed","2015-03-08","2016-03-02","361","Y","1","Adverse Events","2016-02-25","355","2016-02-28","358","4","Y",1,"This mark definitely represents the Adverse Events domain"
"02-027","Clinical Site 02","02","36","F","Hispanic","Treatment B","TRTB","Completed","2015-03-08","2016-03-02","361","Y","1","Concomitant Medications","2015-05-23","77","2015-08-30","176","1","N",2,"This mark definitely represents the Concomitant Medications domain"
"02-027","Clinical Site 02","02","36","F","Hispanic","Treatment B","TRTB","Completed","2015-03-08","2016-03-02","361","Y","1","Concomitant Medications","2015-09-03","180","2015-11-05","243","2","Y",2,"This mark definitely represents the Concomitant Medications domain"
"02-027","Clinical Site 02","02","36","F","Hispanic","Treatment B","TRTB","Completed","2015-03-08","2016-03-02","361","Y","1","Concomitant Medications","2015-12-16","284","2016-03-02","361","3","Y",2,"This mark definitely represents the Concomitant Medications domain"
"02-027","Clinical Site 02","02","36","F","Hispanic","Treatment B","TRTB","Completed","2015-03-08","2016-03-02","361","Y","1","Concomitant Medications","2015-12-27","295","2016-02-21","351","4","Y",2,"This mark definitely represents the Concomitant Medications domain"
"02-027","Clinical Site 02","02","36","F","Hispanic","Treatment B","TRTB","Completed","2015-03-08","2016-03-02","361","Y","1","Enrollment","2015-03-08","1","2015-03-08","1","1",,0,"This mark definitely represents the Enrollment domain"
"02-027","Clinical Site 02","02","36","F","Hispanic","Treatment B","TRTB","Completed","2015-03-08","2016-03-02","361","Y","1","Randomization","2015-04-25","49","2015-04-25","49","1",,0,"This mark definitely represents the Randomization domain"
"02-027","Clinical Site 02","02","36","F","Hispanic","Treatment B","TRTB","Completed","2015-03-08","2016-03-02","361","Y","1","Study Completion","2016-03-02","361","2016-03-02","361","1",,0,"This mark definitely represents the Study Completion domain"
"02-028","Clinical Site 02","02","29","M","Hispanic","Placebo","PLACEBO","Ongoing","2015-04-25","2015-12-12","232","Y","1","Adverse Events","2015-10-11","170","2015-10-22","181","1","N",1,"This mark definitely represents the Adverse Events domain"
"02-028","Clinical Site 02","02","29","M","Hispanic","Placebo","PLACEBO","Ongoing","2015-04-25","2015-12-12","232","Y","1","Adverse Events","2015-12-24","244","2016-02-27","309","2","N",1,"This mark definitely represents the Adverse Events domain"
"02-028","Clinical Site 02","02","29","M","Hispanic","Placebo","PLACEBO","Ongoing","2015-04-25","2015-12-12","232","Y","1","Enrollment","2015-04-25","1","2015-04-25","1","1",,0,"This mark definitely represents the Enrollment domain"
"02-028","Clinical Site 02","02","29","M","Hispanic","Placebo","PLACEBO","Ongoing","2015-04-25","2015-12-12","232","Y","1","Randomization","2015-06-18","55","2015-06-18","55","1",,0,"This mark definitely represents the Randomization domain"
"02-028","Clinical Site 02","02","29","M","Hispanic","Placebo","PLACEBO","Ongoing","2015-04-25","2015-12-12","232","Y","1","Study Completion","2016-04-15","357","2016-04-15","357","1",,0,"This mark definitely represents the Study Completion domain"
"02-029","Clinical Site 02","02","47","M","Black","Placebo","PLACEBO","Ongoing","2015-04-26","2016-04-15","356","Y","1","Adverse Events","2015-05-07","12","2016-01-16","266","1","Y",1,"This mark definitely represents the Adverse Events domain"
"02-029","Clinical Site 02","02","47","M","Black","Placebo","PLACEBO","Ongoing","2015-04-26","2016-04-15","356","Y","1","Adverse Events","2015-07-01","67","2016-02-08","289","2","Y",1,"This mark definitely represents the Adverse Events domain"
"02-029","Clinical Site 02","02","47","M","Black","Placebo","PLACEBO","Ongoing","2015-04-26","2016-04-15","356","Y","1","Adverse Events","2015-10-02","160","2015-11-26","215","3","N",1,"This mark definitely represents the Adverse Events domain"
"02-029","Clinical Site 02","02","47","M","Black","Placebo","PLACEBO","Ongoing","2015-04-26","2016-04-15","356","Y","1","Adverse Events","2016-03-15","325","2016-03-16","326","4","N",1,"This mark definitely represents the Adverse Events domain"
"02-029","Clinical Site 02","02","47","M","Black","Placebo","PLACEBO","Ongoing","2015-04-26","2016-04-15","356","Y","1","Concomitant Medications","2015-04-28","3","2015-10-20","178","1","N",2,"This mark definitely represents the Concomitant Medications domain"
"02-029","Clinical Site 02","02","47","M","Black","Placebo","PLACEBO","Ongoing","2015-04-26","2016-04-15","356","Y","1","Concomitant Medications","2015-06-30","66","2015-07-22","88","2","Y",2,"This mark definitely represents the Concomitant Medications domain"
"02-029","Clinical Site 02","02","47","M","Black","Placebo","PLACEBO","Ongoing","2015-04-26","2016-04-15","356","Y","1","Concomitant Medications","2015-10-14","172","2016-03-25","335","3","Y",2,"This mark definitely represents the Concomitant Medications domain"
"02-029","Clinical Site 02","02","47","M","Black","Placebo","PLACEBO","Ongoing","2015-04-26","2016-04-15","356","Y","1","Concomitant Medications","2016-03-30","340","2016-04-15","356","4","Y",2,"This mark definitely represents the Concomitant Medications domain"
"02-029","Clinical Site 02","02","47","M","Black","Placebo","PLACEBO","Ongoing","2015-04-26","2016-04-15","356","Y","1","Concomitant Medications","2016-04-20","361","2016-04-23","364","5","N",2,"This mark definitely represents the Concomitant Medications domain"
"02-029","Clinical Site 02","02","47","M","Black","Placebo","PLACEBO","Ongoing","2015-04-26","2016-04-15","356","Y","1","Enrollment","2015-04-26","1","2015-04-26","1","1",,0,"This mark definitely represents the Enrollment domain"
"02-029","Clinical Site 02","02","47","M","Black","Placebo","PLACEBO","Ongoing","2015-04-26","2016-04-15","356","Y","1","Randomization","2015-06-17","53","2015-06-17","53","1",,0,"This mark definitely represents the Randomization domain"
"02-029","Clinical Site 02","02","47","M","Black","Placebo","PLACEBO","Ongoing","2015-04-26","2016-04-15","356","Y","1","Study Completion","2016-04-19","360","2016-04-19","360","1",,0,"This mark definitely represents the Study Completion domain"
"02-030","Clinical Site 02","02","41","M","Hispanic","Screen Failure","SCRNFAIL","Screen Failure","2015-12-11","2015-12-11","1","N","0","Enrollment","2015-12-11","1","2015-12-11","1","1",,0,"This mark definitely represents the Enrollment domain"
"03-001","Clinical Site 03","03","43","F","Hispanic","Treatment A","TRTA","Early Termination","2015-04-24","2015-05-15","22","Y","1","Concomitant Medications","2016-02-01","284","2016-02-19","302","1","N",2,"This mark definitely represents the Concomitant Medications domain"
"03-001","Clinical Site 03","03","43","F","Hispanic","Treatment A","TRTA","Early Termination","2015-04-24","2015-05-15","22","Y","1","Concomitant Medications","2016-03-21","333","2016-04-16","359","2","N",2,"This mark definitely represents the Concomitant Medications domain"
"03-001","Clinical Site 03","03","43","F","Hispanic","Treatment A","TRTA","Early Termination","2015-04-24","2015-05-15","22","Y","1","Enrollment","2015-04-24","1","2015-04-24","1","1",,0,"This mark definitely represents the Enrollment domain"
"03-001","Clinical Site 03","03","43","F","Hispanic","Treatment A","TRTA","Early Termination","2015-04-24","2015-05-15","22","Y","1","Randomization","2015-06-13","51","2015-06-13","51","1",,0,"This mark definitely represents the Randomization domain"
"03-001","Clinical Site 03","03","43","F","Hispanic","Treatment A","TRTA","Early Termination","2015-04-24","2015-05-15","22","Y","1","Study Completion","2016-04-17","360","2016-04-17","360","1",,0,"This mark definitely represents the Study Completion domain"
"03-002","Clinical Site 03","03","27","F","White","Treatment A","TRTA","Completed","2015-09-02","2016-08-30","364","Y","1","Adverse Events","2015-11-10","70","2016-02-19","171","1","Y",1,"This mark definitely represents the Adverse Events domain"
"03-002","Clinical Site 03","03","27","F","White","Treatment A","TRTA","Completed","2015-09-02","2016-08-30","364","Y","1","Adverse Events","2015-12-23","113","2016-04-23","235","2","N",1,"This mark definitely represents the Adverse Events domain"
"03-002","Clinical Site 03","03","27","F","White","Treatment A","TRTA","Completed","2015-09-02","2016-08-30","364","Y","1","Adverse Events","2016-08-27","361","2016-08-27","361","3","Y",1,"This mark definitely represents the Adverse Events domain"
"03-002","Clinical Site 03","03","27","F","White","Treatment A","TRTA","Completed","2015-09-02","2016-08-30","364","Y","1","Enrollment","2015-09-02","1","2015-09-02","1","1",,0,"This mark definitely represents the Enrollment domain"
"03-002","Clinical Site 03","03","27","F","White","Treatment A","TRTA","Completed","2015-09-02","2016-08-30","364","Y","1","Randomization","2015-10-31","60","2015-10-31","60","1",,0,"This mark definitely represents the Randomization domain"
"03-002","Clinical Site 03","03","27","F","White","Treatment A","TRTA","Completed","2015-09-02","2016-08-30","364","Y","1","Study Completion","2016-09-04","369","2016-09-04","369","1",,0,"This mark definitely represents the Study Completion domain"
"03-003","Clinical Site 03","03","42","M","Black","Treatment B","TRTB","Ongoing","2015-05-26","2016-03-10","290","Y","1","Adverse Events","2015-08-12","79","2016-02-15","266","1","N",1,"This mark definitely represents the Adverse Events domain"
"03-003","Clinical Site 03","03","42","M","Black","Treatment B","TRTB","Ongoing","2015-05-26","2016-03-10","290","Y","1","Adverse Events","2015-11-20","179","2016-03-04","284","2","N",1,"This mark definitely represents the Adverse Events domain"
"03-003","Clinical Site 03","03","42","M","Black","Treatment B","TRTB","Ongoing","2015-05-26","2016-03-10","290","Y","1","Adverse Events","2016-03-03","283","2016-04-05","316","3","Y",1,"This mark definitely represents the Adverse Events domain"
"03-003","Clinical Site 03","03","42","M","Black","Treatment B","TRTB","Ongoing","2015-05-26","2016-03-10","290","Y","1","Adverse Events","2016-03-09","289","2016-03-09","289","4","N",1,"This mark definitely represents the Adverse Events domain"
"03-003","Clinical Site 03","03","42","M","Black","Treatment B","TRTB","Ongoing","2015-05-26","2016-03-10","290","Y","1","Concomitant Medications","2016-05-24","365","2016-05-24","365","1","Y",2,"This mark definitely represents the Concomitant Medications domain"
"03-003","Clinical Site 03","03","42","M","Black","Treatment B","TRTB","Ongoing","2015-05-26","2016-03-10","290","Y","1","Enrollment","2015-05-26","1","2015-05-26","1","1",,0,"This mark definitely represents the Enrollment domain"
"03-003","Clinical Site 03","03","42","M","Black","Treatment B","TRTB","Ongoing","2015-05-26","2016-03-10","290","Y","1","Randomization","2015-07-17","53","2015-07-17","53","1",,0,"This mark definitely represents the Randomization domain"
"03-003","Clinical Site 03","03","42","M","Black","Treatment B","TRTB","Ongoing","2015-05-26","2016-03-10","290","Y","1","Study Completion","2016-05-29","370","2016-05-29","370","1",,0,"This mark definitely represents the Study Completion domain"
"03-004","Clinical Site 03","03","19","F","Hispanic","Placebo","PLACEBO","Completed","2015-12-03","2016-11-23","357","Y","1","Concomitant Medications","2016-01-04","33","2016-10-13","316","1","Y",2,"This mark definitely represents the Concomitant Medications domain"
"03-004","Clinical Site 03","03","19","F","Hispanic","Placebo","PLACEBO","Completed","2015-12-03","2016-11-23","357","Y","1","Concomitant Medications","2016-06-24","205","2016-08-30","272","2","N",2,"This mark definitely represents the Concomitant Medications domain"
"03-004","Clinical Site 03","03","19","F","Hispanic","Placebo","PLACEBO","Completed","2015-12-03","2016-11-23","357","Y","1","Concomitant Medications","2016-07-19","230","2016-11-08","342","3","N",2,"This mark definitely represents the Concomitant Medications domain"
"03-004","Clinical Site 03","03","19","F","Hispanic","Placebo","PLACEBO","Completed","2015-12-03","2016-11-23","357","Y","1","Enrollment","2015-12-03","1","2015-12-03","1","1",,0,"This mark definitely represents the Enrollment domain"
"03-004","Clinical Site 03","03","19","F","Hispanic","Placebo","PLACEBO","Completed","2015-12-03","2016-11-23","357","Y","1","Randomization","2016-02-01","61","2016-02-01","61","1",,0,"This mark definitely represents the Randomization domain"
"03-004","Clinical Site 03","03","19","F","Hispanic","Placebo","PLACEBO","Completed","2015-12-03","2016-11-23","357","Y","1","Study Completion","2016-12-10","374","2016-12-10","374","1",,0,"This mark definitely represents the Study Completion domain"
"03-005","Clinical Site 03","03","48","M","Hispanic","Placebo","PLACEBO","Ongoing","2015-04-15","2015-10-11","180","Y","1","Adverse Events","2015-07-30","107","2015-10-01","170","1","N",1,"This mark definitely represents the Adverse Events domain"
"03-005","Clinical Site 03","03","48","M","Hispanic","Placebo","PLACEBO","Ongoing","2015-04-15","2015-10-11","180","Y","1","Adverse Events","2015-08-31","139","2015-09-27","166","2","Y",1,"This mark definitely represents the Adverse Events domain"
"03-005","Clinical Site 03","03","48","M","Hispanic","Placebo","PLACEBO","Ongoing","2015-04-15","2015-10-11","180","Y","1","Adverse Events","2016-01-22","283","2016-01-29","290","3","N",1,"This mark definitely represents the Adverse Events domain"
"03-005","Clinical Site 03","03","48","M","Hispanic","Placebo","PLACEBO","Ongoing","2015-04-15","2015-10-11","180","Y","1","Adverse Events","2016-02-20","312","2016-03-22","343","4","Y",1,"This mark definitely represents the Adverse Events domain"
"03-005","Clinical Site 03","03","48","M","Hispanic","Placebo","PLACEBO","Ongoing","2015-04-15","2015-10-11","180","Y","1","Concomitant Medications","2015-08-02","110","2015-10-29","198","1","N",2,"This mark definitely represents the Concomitant Medications domain"
"03-005","Clinical Site 03","03","48","M","Hispanic","Placebo","PLACEBO","Ongoing","2015-04-15","2015-10-11","180","Y","1","Concomitant Medications","2015-08-22","130","2015-08-30","138","2","N",2,"This mark definitely represents the Concomitant Medications domain"
"03-005","Clinical Site 03","03","48","M","Hispanic","Placebo","PLACEBO","Ongoing","2015-04-15","2015-10-11","180","Y","1","Concomitant Medications","2015-09-25","164","2016-03-05","326","3","Y",2,"This mark definitely represents the Concomitant Medications domain"
"03-005","Clinical Site 03","03","48","M","Hispanic","Placebo","PLACEBO","Ongoing","2015-04-15","2015-10-11","180","Y","1","Concomitant Medications","2016-01-23","284","2016-02-23","315","4","Y",2,"This mark definitely represents the Concomitant Medications domain"
"03-005","Clinical Site 03","03","48","M","Hispanic","Placebo","PLACEBO","Ongoing","2015-04-15","2015-10-11","180","Y","1","Concomitant Medications","2016-01-27","288","2016-03-20","341","5","N",2,"This mark definitely represents the Concomitant Medications domain"
"03-005","Clinical Site 03","03","48","M","Hispanic","Placebo","PLACEBO","Ongoing","2015-04-15","2015-10-11","180","Y","1","Enrollment","2015-04-15","1","2015-04-15","1","1",,0,"This mark definitely represents the Enrollment domain"
"03-005","Clinical Site 03","03","48","M","Hispanic","Placebo","PLACEBO","Ongoing","2015-04-15","2015-10-11","180","Y","1","Randomization","2015-06-14","61","2015-06-14","61","1",,0,"This mark definitely represents the Randomization domain"
"03-005","Clinical Site 03","03","48","M","Hispanic","Placebo","PLACEBO","Ongoing","2015-04-15","2015-10-11","180","Y","1","Study Completion","2016-04-22","374","2016-04-22","374","1",,0,"This mark definitely represents the Study Completion domain"
"03-006","Clinical Site 03","03","52","M","Other/Mixed","Treatment B","TRTB","Ongoing","2015-05-24","2015-08-30","99","Y","1","Adverse Events","2015-10-06","136","2016-02-10","263","1","Y",1,"This mark definitely represents the Adverse Events domain"
"03-006","Clinical Site 03","03","52","M","Other/Mixed","Treatment B","TRTB","Ongoing","2015-05-24","2015-08-30","99","Y","1","Enrollment","2015-05-24","1","2015-05-24","1","1",,0,"This mark definitely represents the Enrollment domain"
"03-006","Clinical Site 03","03","52","M","Other/Mixed","Treatment B","TRTB","Ongoing","2015-05-24","2015-08-30","99","Y","1","Randomization","2015-07-13","51","2015-07-13","51","1",,0,"This mark definitely represents the Randomization domain"
"03-006","Clinical Site 03","03","52","M","Other/Mixed","Treatment B","TRTB","Ongoing","2015-05-24","2015-08-30","99","Y","1","Study Completion","2016-05-16","359","2016-05-16","359","1",,0,"This mark definitely represents the Study Completion domain"
"03-007","Clinical Site 03","03","49","F","Other/Mixed","Treatment A","TRTA","Completed","2015-08-18","2016-08-06","355","Y","1","Adverse Events","2015-10-21","65","2016-05-04","261","1","Y",1,"This mark definitely represents the Adverse Events domain"
"03-007","Clinical Site 03","03","49","F","Other/Mixed","Treatment A","TRTA","Completed","2015-08-18","2016-08-06","355","Y","1","Adverse Events","2016-01-19","155","2016-04-07","234","2","Y",1,"This mark definitely represents the Adverse Events domain"
"03-007","Clinical Site 03","03","49","F","Other/Mixed","Treatment A","TRTA","Completed","2015-08-18","2016-08-06","355","Y","1","Adverse Events","2016-03-25","221","2016-08-12","361","3","N",1,"This mark definitely represents the Adverse Events domain"
"03-007","Clinical Site 03","03","49","F","Other/Mixed","Treatment A","TRTA","Completed","2015-08-18","2016-08-06","355","Y","1","Adverse Events","2016-05-22","279","2016-07-11","329","4","Y",1,"This mark definitely represents the Adverse Events domain"
"03-007","Clinical Site 03","03","49","F","Other/Mixed","Treatment A","TRTA","Completed","2015-08-18","2016-08-06","355","Y","1","Concomitant Medications","2016-02-27","194","2016-08-16","365","1","Y",2,"This mark definitely represents the Concomitant Medications domain"
"03-007","Clinical Site 03","03","49","F","Other/Mixed","Treatment A","TRTA","Completed","2015-08-18","2016-08-06","355","Y","1","Concomitant Medications","2016-05-21","278","2016-07-31","349","2","N",2,"This mark definitely represents the Concomitant Medications domain"
"03-007","Clinical Site 03","03","49","F","Other/Mixed","Treatment A","TRTA","Completed","2015-08-18","2016-08-06","355","Y","1","Concomitant Medications","2016-08-10","359","2016-08-12","361","3","Y",2,"This mark definitely represents the Concomitant Medications domain"
"03-007","Clinical Site 03","03","49","F","Other/Mixed","Treatment A","TRTA","Completed","2015-08-18","2016-08-06","355","Y","1","Enrollment","2015-08-18","1","2015-08-18","1","1",,0,"This mark definitely represents the Enrollment domain"
"03-007","Clinical Site 03","03","49","F","Other/Mixed","Treatment A","TRTA","Completed","2015-08-18","2016-08-06","355","Y","1","Randomization","2015-10-11","55","2015-10-11","55","1",,0,"This mark definitely represents the Randomization domain"
"03-007","Clinical Site 03","03","49","F","Other/Mixed","Treatment A","TRTA","Completed","2015-08-18","2016-08-06","355","Y","1","Study Completion","2016-08-16","365","2016-08-16","365","1",,0,"This mark definitely represents the Study Completion domain"
"03-008","Clinical Site 03","03","46","M","Black","Treatment B","TRTB","Ongoing","2015-03-08","2016-02-17","347","Y","1","Adverse Events","2015-04-25","49","2015-06-20","105","1","Y",1,"This mark definitely represents the Adverse Events domain"
"03-008","Clinical Site 03","03","46","M","Black","Treatment B","TRTB","Ongoing","2015-03-08","2016-02-17","347","Y","1","Adverse Events","2015-09-19","196","2015-10-29","236","2","Y",1,"This mark definitely represents the Adverse Events domain"
"03-008","Clinical Site 03","03","46","M","Black","Treatment B","TRTB","Ongoing","2015-03-08","2016-02-17","347","Y","1","Adverse Events","2015-11-01","239","2015-12-01","269","3","Y",1,"This mark definitely represents the Adverse Events domain"
"03-008","Clinical Site 03","03","46","M","Black","Treatment B","TRTB","Ongoing","2015-03-08","2016-02-17","347","Y","1","Enrollment","2015-03-08","1","2015-03-08","1","1",,0,"This mark definitely represents the Enrollment domain"
"03-008","Clinical Site 03","03","46","M","Black","Treatment B","TRTB","Ongoing","2015-03-08","2016-02-17","347","Y","1","Randomization","2015-04-25","49","2015-04-25","49","1",,0,"This mark definitely represents the Randomization domain"
"03-008","Clinical Site 03","03","46","M","Black","Treatment B","TRTB","Ongoing","2015-03-08","2016-02-17","347","Y","1","Study Completion","2016-02-29","359","2016-02-29","359","1",,0,"This mark definitely represents the Study Completion domain"
"03-009","Clinical Site 03","03","28","F","White","Placebo","PLACEBO","Early Termination","2015-11-15","2016-02-19","97","Y","1","Adverse Events","2015-12-30","46","2016-10-28","349","1","N",1,"This mark definitely represents the Adverse Events domain"
"03-009","Clinical Site 03","03","28","F","White","Placebo","PLACEBO","Early Termination","2015-11-15","2016-02-19","97","Y","1","Adverse Events","2016-03-26","133","2016-10-11","332","2","Y",1,"This mark definitely represents the Adverse Events domain"
"03-009","Clinical Site 03","03","28","F","White","Placebo","PLACEBO","Early Termination","2015-11-15","2016-02-19","97","Y","1","Adverse Events","2016-07-14","243","2016-08-05","265","3","N",1,"This mark definitely represents the Adverse Events domain"
"03-009","Clinical Site 03","03","28","F","White","Placebo","PLACEBO","Early Termination","2015-11-15","2016-02-19","97","Y","1","Concomitant Medications","2016-01-11","58","2016-08-06","266","1","N",2,"This mark definitely represents the Concomitant Medications domain"
"03-009","Clinical Site 03","03","28","F","White","Placebo","PLACEBO","Early Termination","2015-11-15","2016-02-19","97","Y","1","Concomitant Medications","2016-05-25","193","2016-10-17","338","2","N",2,"This mark definitely represents the Concomitant Medications domain"
"03-009","Clinical Site 03","03","28","F","White","Placebo","PLACEBO","Early Termination","2015-11-15","2016-02-19","97","Y","1","Concomitant Medications","2016-10-11","332","2016-11-09","361","3","Y",2,"This mark definitely represents the Concomitant Medications domain"
"03-009","Clinical Site 03","03","28","F","White","Placebo","PLACEBO","Early Termination","2015-11-15","2016-02-19","97","Y","1","Enrollment","2015-11-15","1","2015-11-15","1","1",,0,"This mark definitely represents the Enrollment domain"
"03-009","Clinical Site 03","03","28","F","White","Placebo","PLACEBO","Early Termination","2015-11-15","2016-02-19","97","Y","1","Randomization","2016-01-04","51","2016-01-04","51","1",,0,"This mark definitely represents the Randomization domain"
"03-009","Clinical Site 03","03","28","F","White","Placebo","PLACEBO","Early Termination","2015-11-15","2016-02-19","97","Y","1","Study Completion","2016-11-18","370","2016-11-18","370","1",,0,"This mark definitely represents the Study Completion domain"
"03-010","Clinical Site 03","03","40","M","White","Placebo","PLACEBO","Completed","2015-02-07","2016-02-13","372","Y","1","Adverse Events","2015-03-25","47","2015-09-15","221","1","Y",1,"This mark definitely represents the Adverse Events domain"
"03-010","Clinical Site 03","03","40","M","White","Placebo","PLACEBO","Completed","2015-02-07","2016-02-13","372","Y","1","Adverse Events","2015-06-29","143","2015-12-08","305","2","Y",1,"This mark definitely represents the Adverse Events domain"
"03-010","Clinical Site 03","03","40","M","White","Placebo","PLACEBO","Completed","2015-02-07","2016-02-13","372","Y","1","Adverse Events","2015-10-07","243","2015-12-13","310","3","Y",1,"This mark definitely represents the Adverse Events domain"
"03-010","Clinical Site 03","03","40","M","White","Placebo","PLACEBO","Completed","2015-02-07","2016-02-13","372","Y","1","Adverse Events","2016-01-07","335","2016-01-09","337","4","N",1,"This mark definitely represents the Adverse Events domain"
"03-010","Clinical Site 03","03","40","M","White","Placebo","PLACEBO","Completed","2015-02-07","2016-02-13","372","Y","1","Adverse Events","2016-01-09","337","2016-02-05","364","5","N",1,"This mark definitely represents the Adverse Events domain"
"03-010","Clinical Site 03","03","40","M","White","Placebo","PLACEBO","Completed","2015-02-07","2016-02-13","372","Y","1","Concomitant Medications","2015-04-16","69","2015-10-05","241","1","N",2,"This mark definitely represents the Concomitant Medications domain"
"03-010","Clinical Site 03","03","40","M","White","Placebo","PLACEBO","Completed","2015-02-07","2016-02-13","372","Y","1","Concomitant Medications","2015-08-11","186","2015-10-10","246","2","Y",2,"This mark definitely represents the Concomitant Medications domain"
"03-010","Clinical Site 03","03","40","M","White","Placebo","PLACEBO","Completed","2015-02-07","2016-02-13","372","Y","1","Concomitant Medications","2015-12-12","309","2015-12-29","326","3","N",2,"This mark definitely represents the Concomitant Medications domain"
"03-010","Clinical Site 03","03","40","M","White","Placebo","PLACEBO","Completed","2015-02-07","2016-02-13","372","Y","1","Concomitant Medications","2015-12-28","325","2015-12-28","325","4","Y",2,"This mark definitely represents the Concomitant Medications domain"
"03-010","Clinical Site 03","03","40","M","White","Placebo","PLACEBO","Completed","2015-02-07","2016-02-13","372","Y","1","Enrollment","2015-02-07","1","2015-02-07","1","1",,0,"This mark definitely represents the Enrollment domain"
"03-010","Clinical Site 03","03","40","M","White","Placebo","PLACEBO","Completed","2015-02-07","2016-02-13","372","Y","1","Randomization","2015-04-06","59","2015-04-06","59","1",,0,"This mark definitely represents the Randomization domain"
"03-010","Clinical Site 03","03","40","M","White","Placebo","PLACEBO","Completed","2015-02-07","2016-02-13","372","Y","1","Study Completion","2016-02-05","364","2016-02-05","364","1",,0,"This mark definitely represents the Study Completion domain"
"03-011","Clinical Site 03","03","43","M","Black","Treatment A","TRTA","Early Termination","2015-11-16","2016-01-05","51","Y","1","Concomitant Medications","2016-02-02","79","2016-03-27","133","1","Y",2,"This mark definitely represents the Concomitant Medications domain"
"03-011","Clinical Site 03","03","43","M","Black","Treatment A","TRTA","Early Termination","2015-11-16","2016-01-05","51","Y","1","Concomitant Medications","2016-06-19","217","2016-10-15","335","2","Y",2,"This mark definitely represents the Concomitant Medications domain"
"03-011","Clinical Site 03","03","43","M","Black","Treatment A","TRTA","Early Termination","2015-11-16","2016-01-05","51","Y","1","Enrollment","2015-11-16","1","2015-11-16","1","1",,0,"This mark definitely represents the Enrollment domain"
"03-011","Clinical Site 03","03","43","M","Black","Treatment A","TRTA","Early Termination","2015-11-16","2016-01-05","51","Y","1","Randomization","2016-01-04","50","2016-01-04","50","1",,0,"This mark definitely represents the Randomization domain"
"03-011","Clinical Site 03","03","43","M","Black","Treatment A","TRTA","Early Termination","2015-11-16","2016-01-05","51","Y","1","Study Completion","2016-11-12","363","2016-11-12","363","1",,0,"This mark definitely represents the Study Completion domain"
"03-012","Clinical Site 03","03","32","M","Black","Placebo","PLACEBO","Ongoing","2015-08-19","2016-05-19","275","Y","1","Concomitant Medications","2015-11-21","95","2016-04-12","238","1","N",2,"This mark definitely represents the Concomitant Medications domain"
"03-012","Clinical Site 03","03","32","M","Black","Placebo","PLACEBO","Ongoing","2015-08-19","2016-05-19","275","Y","1","Concomitant Medications","2016-02-11","177","2016-07-01","318","2","Y",2,"This mark definitely represents the Concomitant Medications domain"
"03-012","Clinical Site 03","03","32","M","Black","Placebo","PLACEBO","Ongoing","2015-08-19","2016-05-19","275","Y","1","Concomitant Medications","2016-02-18","184","2016-03-05","200","3","N",2,"This mark definitely represents the Concomitant Medications domain"
"03-012","Clinical Site 03","03","32","M","Black","Placebo","PLACEBO","Ongoing","2015-08-19","2016-05-19","275","Y","1","Concomitant Medications","2016-03-14","209","2016-08-04","352","4","N",2,"This mark definitely represents the Concomitant Medications domain"
"03-012","Clinical Site 03","03","32","M","Black","Placebo","PLACEBO","Ongoing","2015-08-19","2016-05-19","275","Y","1","Concomitant Medications","2016-08-15","363","2016-08-15","363","5","Y",2,"This mark definitely represents the Concomitant Medications domain"
"03-012","Clinical Site 03","03","32","M","Black","Placebo","PLACEBO","Ongoing","2015-08-19","2016-05-19","275","Y","1","Enrollment","2015-08-19","1","2015-08-19","1","1",,0,"This mark definitely represents the Enrollment domain"
"03-012","Clinical Site 03","03","32","M","Black","Placebo","PLACEBO","Ongoing","2015-08-19","2016-05-19","275","Y","1","Randomization","2015-10-13","56","2015-10-13","56","1",,0,"This mark definitely represents the Randomization domain"
"03-012","Clinical Site 03","03","32","M","Black","Placebo","PLACEBO","Ongoing","2015-08-19","2016-05-19","275","Y","1","Study Completion","2016-08-22","370","2016-08-22","370","1",,0,"This mark definitely represents the Study Completion domain"
"03-013","Clinical Site 03","03","33","M","Other/Mixed","Placebo","PLACEBO","Ongoing","2015-10-28","2016-08-19","297","Y","1","Adverse Events","2015-11-30","34","2016-10-26","365","1","Y",1,"This mark definitely represents the Adverse Events domain"
"03-013","Clinical Site 03","03","33","M","Other/Mixed","Placebo","PLACEBO","Ongoing","2015-10-28","2016-08-19","297","Y","1","Adverse Events","2016-04-07","163","2016-08-07","285","2","Y",1,"This mark definitely represents the Adverse Events domain"
"03-013","Clinical Site 03","03","33","M","Other/Mixed","Placebo","PLACEBO","Ongoing","2015-10-28","2016-08-19","297","Y","1","Adverse Events","2016-05-11","197","2016-09-03","312","3","Y",1,"This mark definitely represents the Adverse Events domain"
"03-013","Clinical Site 03","03","33","M","Other/Mixed","Placebo","PLACEBO","Ongoing","2015-10-28","2016-08-19","297","Y","1","Adverse Events","2016-08-01","279","2016-08-01","279","4","N",1,"This mark definitely represents the Adverse Events domain"
"03-013","Clinical Site 03","03","33","M","Other/Mixed","Placebo","PLACEBO","Ongoing","2015-10-28","2016-08-19","297","Y","1","Concomitant Medications","2015-10-28","1","2016-10-01","340","1","Y",2,"This mark definitely represents the Concomitant Medications domain"
"03-013","Clinical Site 03","03","33","M","Other/Mixed","Placebo","PLACEBO","Ongoing","2015-10-28","2016-08-19","297","Y","1","Concomitant Medications","2015-12-24","58","2016-01-24","89","2","N",2,"This mark definitely represents the Concomitant Medications domain"
"03-013","Clinical Site 03","03","33","M","Other/Mixed","Placebo","PLACEBO","Ongoing","2015-10-28","2016-08-19","297","Y","1","Concomitant Medications","2016-02-05","101","2016-03-22","147","3","Y",2,"This mark definitely represents the Concomitant Medications domain"
"03-013","Clinical Site 03","03","33","M","Other/Mixed","Placebo","PLACEBO","Ongoing","2015-10-28","2016-08-19","297","Y","1","Concomitant Medications","2016-05-02","188","2016-09-12","321","4","N",2,"This mark definitely represents the Concomitant Medications domain"
"03-013","Clinical Site 03","03","33","M","Other/Mixed","Placebo","PLACEBO","Ongoing","2015-10-28","2016-08-19","297","Y","1","Enrollment","2015-10-28","1","2015-10-28","1","1",,0,"This mark definitely represents the Enrollment domain"
"03-013","Clinical Site 03","03","33","M","Other/Mixed","Placebo","PLACEBO","Ongoing","2015-10-28","2016-08-19","297","Y","1","Randomization","2015-12-21","55","2015-12-21","55","1",,0,"This mark definitely represents the Randomization domain"
"03-013","Clinical Site 03","03","33","M","Other/Mixed","Placebo","PLACEBO","Ongoing","2015-10-28","2016-08-19","297","Y","1","Study Completion","2016-10-20","359","2016-10-20","359","1",,0,"This mark definitely represents the Study Completion domain"
"03-014","Clinical Site 03","03","53","F","Black","Placebo","PLACEBO","Ongoing","2015-02-06","2015-03-07","30","Y","1","Adverse Events","2015-02-25","20","2016-02-03","363","1","N",1,"This mark definitely represents the Adverse Events domain"
"03-014","Clinical Site 03","03","53","F","Black","Placebo","PLACEBO","Ongoing","2015-02-06","2015-03-07","30","Y","1","Adverse Events","2015-06-07","122","2015-10-24","261","2","N",1,"This mark definitely represents the Adverse Events domain"
"03-014","Clinical Site 03","03","53","F","Black","Placebo","PLACEBO","Ongoing","2015-02-06","2015-03-07","30","Y","1","Adverse Events","2015-11-15","283","2015-11-18","286","3","N",1,"This mark definitely represents the Adverse Events domain"
"03-014","Clinical Site 03","03","53","F","Black","Placebo","PLACEBO","Ongoing","2015-02-06","2015-03-07","30","Y","1","Adverse Events","2015-12-06","304","2016-01-02","331","4","Y",1,"This mark definitely represents the Adverse Events domain"
"03-014","Clinical Site 03","03","53","F","Black","Placebo","PLACEBO","Ongoing","2015-02-06","2015-03-07","30","Y","1","Concomitant Medications","2015-04-03","57","2015-11-13","281","1","N",2,"This mark definitely represents the Concomitant Medications domain"
"03-014","Clinical Site 03","03","53","F","Black","Placebo","PLACEBO","Ongoing","2015-02-06","2015-03-07","30","Y","1","Concomitant Medications","2015-07-19","164","2015-09-20","227","2","Y",2,"This mark definitely represents the Concomitant Medications domain"
"03-014","Clinical Site 03","03","53","F","Black","Placebo","PLACEBO","Ongoing","2015-02-06","2015-03-07","30","Y","1","Concomitant Medications","2015-11-17","285","2015-11-25","293","3","N",2,"This mark definitely represents the Concomitant Medications domain"
"03-014","Clinical Site 03","03","53","F","Black","Placebo","PLACEBO","Ongoing","2015-02-06","2015-03-07","30","Y","1","Concomitant Medications","2016-01-12","341","2016-02-04","364","4","N",2,"This mark definitely represents the Concomitant Medications domain"
"03-014","Clinical Site 03","03","53","F","Black","Placebo","PLACEBO","Ongoing","2015-02-06","2015-03-07","30","Y","1","Concomitant Medications","2016-01-26","355","2016-01-27","356","5","N",2,"This mark definitely represents the Concomitant Medications domain"
"03-014","Clinical Site 03","03","53","F","Black","Placebo","PLACEBO","Ongoing","2015-02-06","2015-03-07","30","Y","1","Enrollment","2015-02-06","1","2015-02-06","1","1",,0,"This mark definitely represents the Enrollment domain"
"03-014","Clinical Site 03","03","53","F","Black","Placebo","PLACEBO","Ongoing","2015-02-06","2015-03-07","30","Y","1","Randomization","2015-04-09","63","2015-04-09","63","1",,0,"This mark definitely represents the Randomization domain"
"03-014","Clinical Site 03","03","53","F","Black","Placebo","PLACEBO","Ongoing","2015-02-06","2015-03-07","30","Y","1","Study Completion","2016-01-26","355","2016-01-26","355","1",,0,"This mark definitely represents the Study Completion domain"
"03-015","Clinical Site 03","03","24","F","Black","Placebo","PLACEBO","Completed","2015-07-21","2016-07-13","359","Y","1","Adverse Events","2016-02-05","200","2016-06-28","344","1","N",1,"This mark definitely represents the Adverse Events domain"
"03-015","Clinical Site 03","03","24","F","Black","Placebo","PLACEBO","Completed","2015-07-21","2016-07-13","359","Y","1","Concomitant Medications","2015-07-21","1","2016-05-09","294","1","N",2,"This mark definitely represents the Concomitant Medications domain"
"03-015","Clinical Site 03","03","24","F","Black","Placebo","PLACEBO","Completed","2015-07-21","2016-07-13","359","Y","1","Concomitant Medications","2015-08-18","29","2016-02-19","214","2","Y",2,"This mark definitely represents the Concomitant Medications domain"
"03-015","Clinical Site 03","03","24","F","Black","Placebo","PLACEBO","Completed","2015-07-21","2016-07-13","359","Y","1","Concomitant Medications","2015-09-06","48","2015-11-23","126","3","N",2,"This mark definitely represents the Concomitant Medications domain"
"03-015","Clinical Site 03","03","24","F","Black","Placebo","PLACEBO","Completed","2015-07-21","2016-07-13","359","Y","1","Concomitant Medications","2016-03-05","229","2016-03-21","245","4","N",2,"This mark definitely represents the Concomitant Medications domain"
"03-015","Clinical Site 03","03","24","F","Black","Placebo","PLACEBO","Completed","2015-07-21","2016-07-13","359","Y","1","Concomitant Medications","2016-03-15","239","2016-04-18","273","5","N",2,"This mark definitely represents the Concomitant Medications domain"
"03-015","Clinical Site 03","03","24","F","Black","Placebo","PLACEBO","Completed","2015-07-21","2016-07-13","359","Y","1","Enrollment","2015-07-21","1","2015-07-21","1","1",,0,"This mark definitely represents the Enrollment domain"
"03-015","Clinical Site 03","03","24","F","Black","Placebo","PLACEBO","Completed","2015-07-21","2016-07-13","359","Y","1","Randomization","2015-09-17","59","2015-09-17","59","1",,0,"This mark definitely represents the Randomization domain"
"03-015","Clinical Site 03","03","24","F","Black","Placebo","PLACEBO","Completed","2015-07-21","2016-07-13","359","Y","1","Study Completion","2016-07-28","374","2016-07-28","374","1",,0,"This mark definitely represents the Study Completion domain"
"03-016","Clinical Site 03","03","20","F","White","Treatment A","TRTA","Ongoing","2015-05-04","2015-07-04","62","Y","1","Adverse Events","2015-12-13","224","2016-02-12","285","1","N",1,"This mark definitely represents the Adverse Events domain"
"03-016","Clinical Site 03","03","20","F","White","Treatment A","TRTA","Ongoing","2015-05-04","2015-07-04","62","Y","1","Adverse Events","2016-04-28","361","2016-05-01","364","2","Y",1,"This mark definitely represents the Adverse Events domain"
"03-016","Clinical Site 03","03","20","F","White","Treatment A","TRTA","Ongoing","2015-05-04","2015-07-04","62","Y","1","Enrollment","2015-05-04","1","2015-05-04","1","1",,0,"This mark definitely represents the Enrollment domain"
"03-016","Clinical Site 03","03","20","F","White","Treatment A","TRTA","Ongoing","2015-05-04","2015-07-04","62","Y","1","Randomization","2015-06-30","58","2015-06-30","58","1",,0,"This mark definitely represents the Randomization domain"
"03-016","Clinical Site 03","03","20","F","White","Treatment A","TRTA","Ongoing","2015-05-04","2015-07-04","62","Y","1","Study Completion","2016-04-22","355","2016-04-22","355","1",,0,"This mark definitely represents the Study Completion domain"
"03-017","Clinical Site 03","03","43","M","Black","Treatment B","TRTB","Ongoing","2015-06-26","2015-10-27","124","Y","1","Adverse Events","2015-07-21","26","2016-05-19","329","1","Y",1,"This mark definitely represents the Adverse Events domain"
"03-017","Clinical Site 03","03","43","M","Black","Treatment B","TRTB","Ongoing","2015-06-26","2015-10-27","124","Y","1","Adverse Events","2015-12-18","176","2016-03-29","278","2","N",1,"This mark definitely represents the Adverse Events domain"
"03-017","Clinical Site 03","03","43","M","Black","Treatment B","TRTB","Ongoing","2015-06-26","2015-10-27","124","Y","1","Adverse Events","2015-12-22","180","2016-03-25","274","3","Y",1,"This mark definitely represents the Adverse Events domain"
"03-017","Clinical Site 03","03","43","M","Black","Treatment B","TRTB","Ongoing","2015-06-26","2015-10-27","124","Y","1","Adverse Events","2016-01-25","214","2016-05-21","331","4","Y",1,"This mark definitely represents the Adverse Events domain"
"03-017","Clinical Site 03","03","43","M","Black","Treatment B","TRTB","Ongoing","2015-06-26","2015-10-27","124","Y","1","Adverse Events","2016-06-18","359","2016-06-20","361","5","Y",1,"This mark definitely represents the Adverse Events domain"
"03-017","Clinical Site 03","03","43","M","Black","Treatment B","TRTB","Ongoing","2015-06-26","2015-10-27","124","Y","1","Concomitant Medications","2015-07-18","23","2015-12-24","182","1","N",2,"This mark definitely represents the Concomitant Medications domain"
"03-017","Clinical Site 03","03","43","M","Black","Treatment B","TRTB","Ongoing","2015-06-26","2015-10-27","124","Y","1","Concomitant Medications","2015-10-22","119","2016-04-06","286","2","N",2,"This mark definitely represents the Concomitant Medications domain"
"03-017","Clinical Site 03","03","43","M","Black","Treatment B","TRTB","Ongoing","2015-06-26","2015-10-27","124","Y","1","Concomitant Medications","2015-12-01","159","2016-03-05","254","3","N",2,"This mark definitely represents the Concomitant Medications domain"
"03-017","Clinical Site 03","03","43","M","Black","Treatment B","TRTB","Ongoing","2015-06-26","2015-10-27","124","Y","1","Concomitant Medications","2016-03-19","268","2016-03-23","272","4","Y",2,"This mark definitely represents the Concomitant Medications domain"
"03-017","Clinical Site 03","03","43","M","Black","Treatment B","TRTB","Ongoing","2015-06-26","2015-10-27","124","Y","1","Enrollment","2015-06-26","1","2015-06-26","1","1",,0,"This mark definitely represents the Enrollment domain"
"03-017","Clinical Site 03","03","43","M","Black","Treatment B","TRTB","Ongoing","2015-06-26","2015-10-27","124","Y","1","Randomization","2015-08-14","50","2015-08-14","50","1",,0,"This mark definitely represents the Randomization domain"
"03-017","Clinical Site 03","03","43","M","Black","Treatment B","TRTB","Ongoing","2015-06-26","2015-10-27","124","Y","1","Study Completion","2016-06-20","361","2016-06-20","361","1",,0,"This mark definitely represents the Study Completion domain"
"03-018","Clinical Site 03","03","19","M","Hispanic","Placebo","PLACEBO","Ongoing","2015-05-30","2015-08-30","93","Y","1","Concomitant Medications","2015-10-21","145","2016-05-14","351","1","Y",2,"This mark definitely represents the Concomitant Medications domain"
"03-018","Clinical Site 03","03","19","M","Hispanic","Placebo","PLACEBO","Ongoing","2015-05-30","2015-08-30","93","Y","1","Concomitant Medications","2016-05-15","352","2016-05-22","359","2","N",2,"This mark definitely represents the Concomitant Medications domain"
"03-018","Clinical Site 03","03","19","M","Hispanic","Placebo","PLACEBO","Ongoing","2015-05-30","2015-08-30","93","Y","1","Enrollment","2015-05-30","1","2015-05-30","1","1",,0,"This mark definitely represents the Enrollment domain"
"03-018","Clinical Site 03","03","19","M","Hispanic","Placebo","PLACEBO","Ongoing","2015-05-30","2015-08-30","93","Y","1","Randomization","2015-07-20","52","2015-07-20","52","1",,0,"This mark definitely represents the Randomization domain"
"03-018","Clinical Site 03","03","19","M","Hispanic","Placebo","PLACEBO","Ongoing","2015-05-30","2015-08-30","93","Y","1","Study Completion","2016-06-05","373","2016-06-05","373","1",,0,"This mark definitely represents the Study Completion domain"
"03-019","Clinical Site 03","03","18","M","Hispanic","Treatment B","TRTB","Completed","2015-11-06","2016-11-07","368","Y","1","Concomitant Medications","2015-11-15","10","2015-12-12","37","1","Y",2,"This mark definitely represents the Concomitant Medications domain"
"03-019","Clinical Site 03","03","18","M","Hispanic","Treatment B","TRTB","Completed","2015-11-06","2016-11-07","368","Y","1","Concomitant Medications","2015-11-27","22","2016-02-14","101","2","N",2,"This mark definitely represents the Concomitant Medications domain"
"03-019","Clinical Site 03","03","18","M","Hispanic","Treatment B","TRTB","Completed","2015-11-06","2016-11-07","368","Y","1","Concomitant Medications","2016-03-09","125","2016-10-18","348","3","Y",2,"This mark definitely represents the Concomitant Medications domain"
"03-019","Clinical Site 03","03","18","M","Hispanic","Treatment B","TRTB","Completed","2015-11-06","2016-11-07","368","Y","1","Enrollment","2015-11-06","1","2015-11-06","1","1",,0,"This mark definitely represents the Enrollment domain"
"03-019","Clinical Site 03","03","18","M","Hispanic","Treatment B","TRTB","Completed","2015-11-06","2016-11-07","368","Y","1","Randomization","2016-01-05","61","2016-01-05","61","1",,0,"This mark definitely represents the Randomization domain"
"03-019","Clinical Site 03","03","18","M","Hispanic","Treatment B","TRTB","Completed","2015-11-06","2016-11-07","368","Y","1","Study Completion","2016-10-25","355","2016-10-25","355","1",,0,"This mark definitely represents the Study Completion domain"
"03-020","Clinical Site 03","03","50","M","White","Treatment A","TRTA","Ongoing","2015-08-09","2015-12-09","123","Y","1","Adverse Events","2015-10-08","61","2016-02-01","177","1","Y",1,"This mark definitely represents the Adverse Events domain"
"03-020","Clinical Site 03","03","50","M","White","Treatment A","TRTA","Ongoing","2015-08-09","2015-12-09","123","Y","1","Adverse Events","2016-04-29","265","2016-06-15","312","2","N",1,"This mark definitely represents the Adverse Events domain"
"03-020","Clinical Site 03","03","50","M","White","Treatment A","TRTA","Ongoing","2015-08-09","2015-12-09","123","Y","1","Adverse Events","2016-06-14","311","2016-08-06","364","3","N",1,"This mark definitely represents the Adverse Events domain"
"03-020","Clinical Site 03","03","50","M","White","Treatment A","TRTA","Ongoing","2015-08-09","2015-12-09","123","Y","1","Adverse Events","2016-08-01","359","2016-08-07","365","4","N",1,"This mark definitely represents the Adverse Events domain"
"03-020","Clinical Site 03","03","50","M","White","Treatment A","TRTA","Ongoing","2015-08-09","2015-12-09","123","Y","1","Concomitant Medications","2016-03-05","210","2016-05-04","270","1","N",2,"This mark definitely represents the Concomitant Medications domain"
"03-020","Clinical Site 03","03","50","M","White","Treatment A","TRTA","Ongoing","2015-08-09","2015-12-09","123","Y","1","Concomitant Medications","2016-03-11","216","2016-06-11","308","2","N",2,"This mark definitely represents the Concomitant Medications domain"
"03-020","Clinical Site 03","03","50","M","White","Treatment A","TRTA","Ongoing","2015-08-09","2015-12-09","123","Y","1","Concomitant Medications","2016-08-04","362","2016-08-06","364","3","N",2,"This mark definitely represents the Concomitant Medications domain"
"03-020","Clinical Site 03","03","50","M","White","Treatment A","TRTA","Ongoing","2015-08-09","2015-12-09","123","Y","1","Enrollment","2015-08-09","1","2015-08-09","1","1",,0,"This mark definitely represents the Enrollment domain"
"03-020","Clinical Site 03","03","50","M","White","Treatment A","TRTA","Ongoing","2015-08-09","2015-12-09","123","Y","1","Randomization","2015-09-27","50","2015-09-27","50","1",,0,"This mark definitely represents the Randomization domain"
"03-020","Clinical Site 03","03","50","M","White","Treatment A","TRTA","Ongoing","2015-08-09","2015-12-09","123","Y","1","Study Completion","2016-07-31","358","2016-07-31","358","1",,0,"This mark definitely represents the Study Completion domain"
"03-021","Clinical Site 03","03","18","M","Hispanic","Treatment A","TRTA","Ongoing","2015-09-21","2016-08-09","324","Y","1","Adverse Events","2016-02-25","158","2016-08-05","320","1","N",1,"This mark definitely represents the Adverse Events domain"
"03-021","Clinical Site 03","03","18","M","Hispanic","Treatment A","TRTA","Ongoing","2015-09-21","2016-08-09","324","Y","1","Adverse Events","2016-07-18","302","2016-08-02","317","2","N",1,"This mark definitely represents the Adverse Events domain"
"03-021","Clinical Site 03","03","18","M","Hispanic","Treatment A","TRTA","Ongoing","2015-09-21","2016-08-09","324","Y","1","Concomitant Medications","2016-03-14","176","2016-06-04","258","1","N",2,"This mark definitely represents the Concomitant Medications domain"
"03-021","Clinical Site 03","03","18","M","Hispanic","Treatment A","TRTA","Ongoing","2015-09-21","2016-08-09","324","Y","1","Concomitant Medications","2016-04-03","196","2016-05-28","251","2","N",2,"This mark definitely represents the Concomitant Medications domain"
"03-021","Clinical Site 03","03","18","M","Hispanic","Treatment A","TRTA","Ongoing","2015-09-21","2016-08-09","324","Y","1","Concomitant Medications","2016-07-27","311","2016-09-08","354","3","N",2,"This mark definitely represents the Concomitant Medications domain"
"03-021","Clinical Site 03","03","18","M","Hispanic","Treatment A","TRTA","Ongoing","2015-09-21","2016-08-09","324","Y","1","Enrollment","2015-09-21","1","2015-09-21","1","1",,0,"This mark definitely represents the Enrollment domain"
"03-021","Clinical Site 03","03","18","M","Hispanic","Treatment A","TRTA","Ongoing","2015-09-21","2016-08-09","324","Y","1","Randomization","2015-11-12","53","2015-11-12","53","1",,0,"This mark definitely represents the Randomization domain"
"03-021","Clinical Site 03","03","18","M","Hispanic","Treatment A","TRTA","Ongoing","2015-09-21","2016-08-09","324","Y","1","Study Completion","2016-09-11","357","2016-09-11","357","1",,0,"This mark definitely represents the Study Completion domain"
"03-022","Clinical Site 03","03","49","M","Hispanic","Placebo","PLACEBO","Ongoing","2015-05-14","2016-04-14","337","Y","1","Adverse Events","2015-05-23","10","2016-04-17","340","1","Y",1,"This mark definitely represents the Adverse Events domain"
"03-022","Clinical Site 03","03","49","M","Hispanic","Placebo","PLACEBO","Ongoing","2015-05-14","2016-04-14","337","Y","1","Adverse Events","2015-08-26","105","2015-09-19","129","2","Y",1,"This mark definitely represents the Adverse Events domain"
"03-022","Clinical Site 03","03","49","M","Hispanic","Placebo","PLACEBO","Ongoing","2015-05-14","2016-04-14","337","Y","1","Adverse Events","2015-09-19","129","2015-11-28","199","3","Y",1,"This mark definitely represents the Adverse Events domain"
"03-022","Clinical Site 03","03","49","M","Hispanic","Placebo","PLACEBO","Ongoing","2015-05-14","2016-04-14","337","Y","1","Concomitant Medications","2015-06-21","39","2016-02-26","289","1","Y",2,"This mark definitely represents the Concomitant Medications domain"
"03-022","Clinical Site 03","03","49","M","Hispanic","Placebo","PLACEBO","Ongoing","2015-05-14","2016-04-14","337","Y","1","Concomitant Medications","2015-08-19","98","2015-11-29","200","2","Y",2,"This mark definitely represents the Concomitant Medications domain"
"03-022","Clinical Site 03","03","49","M","Hispanic","Placebo","PLACEBO","Ongoing","2015-05-14","2016-04-14","337","Y","1","Concomitant Medications","2016-03-04","296","2016-03-06","298","3","N",2,"This mark definitely represents the Concomitant Medications domain"
"03-022","Clinical Site 03","03","49","M","Hispanic","Placebo","PLACEBO","Ongoing","2015-05-14","2016-04-14","337","Y","1","Enrollment","2015-05-14","1","2015-05-14","1","1",,0,"This mark definitely represents the Enrollment domain"
"03-022","Clinical Site 03","03","49","M","Hispanic","Placebo","PLACEBO","Ongoing","2015-05-14","2016-04-14","337","Y","1","Randomization","2015-07-02","50","2015-07-02","50","1",,0,"This mark definitely represents the Randomization domain"
"03-022","Clinical Site 03","03","49","M","Hispanic","Placebo","PLACEBO","Ongoing","2015-05-14","2016-04-14","337","Y","1","Study Completion","2016-05-18","371","2016-05-18","371","1",,0,"This mark definitely represents the Study Completion domain"
"03-023","Clinical Site 03","03","52","M","Hispanic","Placebo","PLACEBO","Ongoing","2015-03-25","2015-06-03","71","Y","1","Adverse Events","2015-06-01","69","2015-07-06","104","1","Y",1,"This mark definitely represents the Adverse Events domain"
"03-023","Clinical Site 03","03","52","M","Hispanic","Placebo","PLACEBO","Ongoing","2015-03-25","2015-06-03","71","Y","1","Adverse Events","2015-07-28","126","2015-12-19","270","2","N",1,"This mark definitely represents the Adverse Events domain"
"03-023","Clinical Site 03","03","52","M","Hispanic","Placebo","PLACEBO","Ongoing","2015-03-25","2015-06-03","71","Y","1","Adverse Events","2015-08-26","155","2015-09-07","167","3","N",1,"This mark definitely represents the Adverse Events domain"
"03-023","Clinical Site 03","03","52","M","Hispanic","Placebo","PLACEBO","Ongoing","2015-03-25","2015-06-03","71","Y","1","Concomitant Medications","2015-05-30","67","2016-01-07","289","1","Y",2,"This mark definitely represents the Concomitant Medications domain"
"03-023","Clinical Site 03","03","52","M","Hispanic","Placebo","PLACEBO","Ongoing","2015-03-25","2015-06-03","71","Y","1","Concomitant Medications","2015-11-21","242","2015-11-28","249","2","N",2,"This mark definitely represents the Concomitant Medications domain"
"03-023","Clinical Site 03","03","52","M","Hispanic","Placebo","PLACEBO","Ongoing","2015-03-25","2015-06-03","71","Y","1","Enrollment","2015-03-25","1","2015-03-25","1","1",,0,"This mark definitely represents the Enrollment domain"
"03-023","Clinical Site 03","03","52","M","Hispanic","Placebo","PLACEBO","Ongoing","2015-03-25","2015-06-03","71","Y","1","Randomization","2015-05-25","62","2015-05-25","62","1",,0,"This mark definitely represents the Randomization domain"
"03-023","Clinical Site 03","03","52","M","Hispanic","Placebo","PLACEBO","Ongoing","2015-03-25","2015-06-03","71","Y","1","Study Completion","2016-03-15","357","2016-03-15","357","1",,0,"This mark definitely represents the Study Completion domain"
"03-024","Clinical Site 03","03","27","F","White","Screen Failure","SCRNFAIL","Screen Failure","2015-03-16","2015-03-16","1","N","0","Enrollment","2015-03-16","1","2015-03-16","1","1",,0,"This mark definitely represents the Enrollment domain"
"03-025","Clinical Site 03","03","53","F","Black","Treatment B","TRTB","Ongoing","2015-04-29","2016-02-16","294","Y","1","Adverse Events","2015-06-12","45","2015-12-16","232","1","N",1,"This mark definitely represents the Adverse Events domain"
"03-025","Clinical Site 03","03","53","F","Black","Treatment B","TRTB","Ongoing","2015-04-29","2016-02-16","294","Y","1","Adverse Events","2015-07-05","68","2015-07-05","68","2","Y",1,"This mark definitely represents the Adverse Events domain"
"03-025","Clinical Site 03","03","53","F","Black","Treatment B","TRTB","Ongoing","2015-04-29","2016-02-16","294","Y","1","Adverse Events","2015-09-21","146","2016-01-21","268","3","N",1,"This mark definitely represents the Adverse Events domain"
"03-025","Clinical Site 03","03","53","F","Black","Treatment B","TRTB","Ongoing","2015-04-29","2016-02-16","294","Y","1","Adverse Events","2015-09-25","150","2016-03-03","310","4","N",1,"This mark definitely represents the Adverse Events domain"
"03-025","Clinical Site 03","03","53","F","Black","Treatment B","TRTB","Ongoing","2015-04-29","2016-02-16","294","Y","1","Adverse Events","2015-11-25","211","2016-01-21","268","5","Y",1,"This mark definitely represents the Adverse Events domain"
"03-025","Clinical Site 03","03","53","F","Black","Treatment B","TRTB","Ongoing","2015-04-29","2016-02-16","294","Y","1","Enrollment","2015-04-29","1","2015-04-29","1","1",,0,"This mark definitely represents the Enrollment domain"
"03-025","Clinical Site 03","03","53","F","Black","Treatment B","TRTB","Ongoing","2015-04-29","2016-02-16","294","Y","1","Randomization","2015-06-24","57","2015-06-24","57","1",,0,"This mark definitely represents the Randomization domain"
"03-025","Clinical Site 03","03","53","F","Black","Treatment B","TRTB","Ongoing","2015-04-29","2016-02-16","294","Y","1","Study Completion","2016-05-05","373","2016-05-05","373","1",,0,"This mark definitely represents the Study Completion domain"
"03-026","Clinical Site 03","03","18","M","White","Treatment B","TRTB","Ongoing","2015-10-08","2015-10-28","21","Y","1","Adverse Events","2015-12-23","77","2016-03-16","161","1","N",1,"This mark definitely represents the Adverse Events domain"
"03-026","Clinical Site 03","03","18","M","White","Treatment B","TRTB","Ongoing","2015-10-08","2015-10-28","21","Y","1","Concomitant Medications","2015-12-23","77","2016-06-25","262","1","Y",2,"This mark definitely represents the Concomitant Medications domain"
"03-026","Clinical Site 03","03","18","M","White","Treatment B","TRTB","Ongoing","2015-10-08","2015-10-28","21","Y","1","Concomitant Medications","2016-02-10","126","2016-04-05","181","2","Y",2,"This mark definitely represents the Concomitant Medications domain"
"03-026","Clinical Site 03","03","18","M","White","Treatment B","TRTB","Ongoing","2015-10-08","2015-10-28","21","Y","1","Concomitant Medications","2016-03-07","152","2016-05-12","218","3","N",2,"This mark definitely represents the Concomitant Medications domain"
"03-026","Clinical Site 03","03","18","M","White","Treatment B","TRTB","Ongoing","2015-10-08","2015-10-28","21","Y","1","Enrollment","2015-10-08","1","2015-10-08","1","1",,0,"This mark definitely represents the Enrollment domain"
"03-026","Clinical Site 03","03","18","M","White","Treatment B","TRTB","Ongoing","2015-10-08","2015-10-28","21","Y","1","Randomization","2015-12-02","56","2015-12-02","56","1",,0,"This mark definitely represents the Randomization domain"
"03-026","Clinical Site 03","03","18","M","White","Treatment B","TRTB","Ongoing","2015-10-08","2015-10-28","21","Y","1","Study Completion","2016-10-16","375","2016-10-16","375","1",,0,"This mark definitely represents the Study Completion domain"
"03-027","Clinical Site 03","03","37","F","Other/Mixed","Treatment B","TRTB","Ongoing","2015-05-10","2015-05-25","16","Y","1","Adverse Events","2015-05-10","1","2015-09-20","134","1","Y",1,"This mark definitely represents the Adverse Events domain"
"03-027","Clinical Site 03","03","37","F","Other/Mixed","Treatment B","TRTB","Ongoing","2015-05-10","2015-05-25","16","Y","1","Concomitant Medications","2016-03-22","318","2016-04-24","351","1","Y",2,"This mark definitely represents the Concomitant Medications domain"
"03-027","Clinical Site 03","03","37","F","Other/Mixed","Treatment B","TRTB","Ongoing","2015-05-10","2015-05-25","16","Y","1","Enrollment","2015-05-10","1","2015-05-10","1","1",,0,"This mark definitely represents the Enrollment domain"
"03-027","Clinical Site 03","03","37","F","Other/Mixed","Treatment B","TRTB","Ongoing","2015-05-10","2015-05-25","16","Y","1","Randomization","2015-07-06","58","2015-07-06","58","1",,0,"This mark definitely represents the Randomization domain"
"03-027","Clinical Site 03","03","37","F","Other/Mixed","Treatment B","TRTB","Ongoing","2015-05-10","2015-05-25","16","Y","1","Study Completion","2016-05-10","367","2016-05-10","367","1",,0,"This mark definitely represents the Study Completion domain"
"03-028","Clinical Site 03","03","37","F","Other/Mixed","Placebo","PLACEBO","Ongoing","2015-03-08","2015-11-22","260","Y","1","Adverse Events","2015-06-22","107","2016-01-13","312","1","N",1,"This mark definitely represents the Adverse Events domain"
"03-028","Clinical Site 03","03","37","F","Other/Mixed","Placebo","PLACEBO","Ongoing","2015-03-08","2015-11-22","260","Y","1","Adverse Events","2015-08-22","168","2016-01-20","319","2","Y",1,"This mark definitely represents the Adverse Events domain"
"03-028","Clinical Site 03","03","37","F","Other/Mixed","Placebo","PLACEBO","Ongoing","2015-03-08","2015-11-22","260","Y","1","Adverse Events","2015-09-22","199","2016-02-21","351","3","N",1,"This mark definitely represents the Adverse Events domain"
"03-028","Clinical Site 03","03","37","F","Other/Mixed","Placebo","PLACEBO","Ongoing","2015-03-08","2015-11-22","260","Y","1","Adverse Events","2015-10-25","232","2016-02-23","353","4","Y",1,"This mark definitely represents the Adverse Events domain"
"03-028","Clinical Site 03","03","37","F","Other/Mixed","Placebo","PLACEBO","Ongoing","2015-03-08","2015-11-22","260","Y","1","Adverse Events","2016-02-16","346","2016-02-18","348","5","Y",1,"This mark definitely represents the Adverse Events domain"
"03-028","Clinical Site 03","03","37","F","Other/Mixed","Placebo","PLACEBO","Ongoing","2015-03-08","2015-11-22","260","Y","1","Concomitant Medications","2015-05-25","79","2015-11-28","266","1","Y",2,"This mark definitely represents the Concomitant Medications domain"
"03-028","Clinical Site 03","03","37","F","Other/Mixed","Placebo","PLACEBO","Ongoing","2015-03-08","2015-11-22","260","Y","1","Concomitant Medications","2015-06-21","106","2015-11-16","254","2","N",2,"This mark definitely represents the Concomitant Medications domain"
"03-028","Clinical Site 03","03","37","F","Other/Mixed","Placebo","PLACEBO","Ongoing","2015-03-08","2015-11-22","260","Y","1","Concomitant Medications","2015-12-17","285","2016-02-10","340","3","N",2,"This mark definitely represents the Concomitant Medications domain"
"03-028","Clinical Site 03","03","37","F","Other/Mixed","Placebo","PLACEBO","Ongoing","2015-03-08","2015-11-22","260","Y","1","Concomitant Medications","2015-12-24","292","2015-12-28","296","4","N",2,"This mark definitely represents the Concomitant Medications domain"
"03-028","Clinical Site 03","03","37","F","Other/Mixed","Placebo","PLACEBO","Ongoing","2015-03-08","2015-11-22","260","Y","1","Enrollment","2015-03-08","1","2015-03-08","1","1",,0,"This mark definitely represents the Enrollment domain"
"03-028","Clinical Site 03","03","37","F","Other/Mixed","Placebo","PLACEBO","Ongoing","2015-03-08","2015-11-22","260","Y","1","Randomization","2015-05-02","56","2015-05-02","56","1",,0,"This mark definitely represents the Randomization domain"
"03-028","Clinical Site 03","03","37","F","Other/Mixed","Placebo","PLACEBO","Ongoing","2015-03-08","2015-11-22","260","Y","1","Study Completion","2016-03-06","365","2016-03-06","365","1",,0,"This mark definitely represents the Study Completion domain"
"03-029","Clinical Site 03","03","26","M","White","Placebo","PLACEBO","Ongoing","2015-06-03","2016-02-24","267","Y","1","Adverse Events","2015-08-28","87","2015-10-22","142","1","Y",1,"This mark definitely represents the Adverse Events domain"
"03-029","Clinical Site 03","03","26","M","White","Placebo","PLACEBO","Ongoing","2015-06-03","2016-02-24","267","Y","1","Adverse Events","2016-01-21","233","2016-02-09","252","2","N",1,"This mark definitely represents the Adverse Events domain"
"03-029","Clinical Site 03","03","26","M","White","Placebo","PLACEBO","Ongoing","2015-06-03","2016-02-24","267","Y","1","Adverse Events","2016-04-05","308","2016-04-30","333","3","Y",1,"This mark definitely represents the Adverse Events domain"
"03-029","Clinical Site 03","03","26","M","White","Placebo","PLACEBO","Ongoing","2015-06-03","2016-02-24","267","Y","1","Adverse Events","2016-05-30","363","2016-05-31","364","4","Y",1,"This mark definitely represents the Adverse Events domain"
"03-029","Clinical Site 03","03","26","M","White","Placebo","PLACEBO","Ongoing","2015-06-03","2016-02-24","267","Y","1","Enrollment","2015-06-03","1","2015-06-03","1","1",,0,"This mark definitely represents the Enrollment domain"
"03-029","Clinical Site 03","03","26","M","White","Placebo","PLACEBO","Ongoing","2015-06-03","2016-02-24","267","Y","1","Randomization","2015-07-31","59","2015-07-31","59","1",,0,"This mark definitely represents the Randomization domain"
"03-029","Clinical Site 03","03","26","M","White","Placebo","PLACEBO","Ongoing","2015-06-03","2016-02-24","267","Y","1","Study Completion","2016-06-07","371","2016-06-07","371","1",,0,"This mark definitely represents the Study Completion domain"
"03-030","Clinical Site 03","03","18","M","Hispanic","Treatment B","TRTB","Ongoing","2015-03-30","2015-12-19","265","Y","1","Adverse Events","2015-05-03","35","2015-09-17","172","1","Y",1,"This mark definitely represents the Adverse Events domain"
"03-030","Clinical Site 03","03","18","M","Hispanic","Treatment B","TRTB","Ongoing","2015-03-30","2015-12-19","265","Y","1","Adverse Events","2015-10-12","197","2015-10-12","197","2","Y",1,"This mark definitely represents the Adverse Events domain"
"03-030","Clinical Site 03","03","18","M","Hispanic","Treatment B","TRTB","Ongoing","2015-03-30","2015-12-19","265","Y","1","Adverse Events","2016-02-06","314","2016-03-07","344","3","N",1,"This mark definitely represents the Adverse Events domain"
"03-030","Clinical Site 03","03","18","M","Hispanic","Treatment B","TRTB","Ongoing","2015-03-30","2015-12-19","265","Y","1","Concomitant Medications","2015-10-17","202","2016-03-17","354","1","N",2,"This mark definitely represents the Concomitant Medications domain"
"03-030","Clinical Site 03","03","18","M","Hispanic","Treatment B","TRTB","Ongoing","2015-03-30","2015-12-19","265","Y","1","Concomitant Medications","2015-12-11","257","2016-02-03","311","2","N",2,"This mark definitely represents the Concomitant Medications domain"
"03-030","Clinical Site 03","03","18","M","Hispanic","Treatment B","TRTB","Ongoing","2015-03-30","2015-12-19","265","Y","1","Concomitant Medications","2016-01-06","283","2016-01-13","290","3","Y",2,"This mark definitely represents the Concomitant Medications domain"
"03-030","Clinical Site 03","03","18","M","Hispanic","Treatment B","TRTB","Ongoing","2015-03-30","2015-12-19","265","Y","1","Enrollment","2015-03-30","1","2015-03-30","1","1",,0,"This mark definitely represents the Enrollment domain"
"03-030","Clinical Site 03","03","18","M","Hispanic","Treatment B","TRTB","Ongoing","2015-03-30","2015-12-19","265","Y","1","Randomization","2015-05-29","61","2015-05-29","61","1",,0,"This mark definitely represents the Randomization domain"
"03-030","Clinical Site 03","03","18","M","Hispanic","Treatment B","TRTB","Ongoing","2015-03-30","2015-12-19","265","Y","1","Study Completion","2016-03-20","357","2016-03-20","357","1",,0,"This mark definitely represents the Study Completion domain"
"04-001","Clinical Site 04","04","21","M","Hispanic","Screen Failure","SCRNFAIL","Screen Failure","2015-02-11","2015-02-11","1","N","0","Enrollment","2015-02-11","1","2015-02-11","1","1",,0,"This mark definitely represents the Enrollment domain"
"04-002","Clinical Site 04","04","54","F","White","Treatment A","TRTA","Completed","2015-06-19","2016-06-09","357","Y","1","Adverse Events","2015-12-13","178","2016-02-09","236","1","Y",1,"This mark definitely represents the Adverse Events domain"
"04-002","Clinical Site 04","04","54","F","White","Treatment A","TRTA","Completed","2015-06-19","2016-06-09","357","Y","1","Adverse Events","2015-12-20","185","2016-01-07","203","2","N",1,"This mark definitely represents the Adverse Events domain"
"04-002","Clinical Site 04","04","54","F","White","Treatment A","TRTA","Completed","2015-06-19","2016-06-09","357","Y","1","Adverse Events","2016-04-30","317","2016-05-28","345","3","N",1,"This mark definitely represents the Adverse Events domain"
"04-002","Clinical Site 04","04","54","F","White","Treatment A","TRTA","Completed","2015-06-19","2016-06-09","357","Y","1","Concomitant Medications","2015-09-18","92","2015-12-31","196","1","N",2,"This mark definitely represents the Concomitant Medications domain"
"04-002","Clinical Site 04","04","54","F","White","Treatment A","TRTA","Completed","2015-06-19","2016-06-09","357","Y","1","Enrollment","2015-06-19","1","2015-06-19","1","1",,0,"This mark definitely represents the Enrollment domain"
"04-002","Clinical Site 04","04","54","F","White","Treatment A","TRTA","Completed","2015-06-19","2016-06-09","357","Y","1","Randomization","2015-08-15","58","2015-08-15","58","1",,0,"This mark definitely represents the Randomization domain"
"04-002","Clinical Site 04","04","54","F","White","Treatment A","TRTA","Completed","2015-06-19","2016-06-09","357","Y","1","Study Completion","2016-06-07","355","2016-06-07","355","1",,0,"This mark definitely represents the Study Completion domain"
"04-003","Clinical Site 04","04","25","M","Other/Mixed","Treatment A","TRTA","Ongoing","2015-11-17","2015-12-30","44","Y","1","Adverse Events","2015-12-03","17","2016-07-03","230","1","Y",1,"This mark definitely represents the Adverse Events domain"
"04-003","Clinical Site 04","04","25","M","Other/Mixed","Treatment A","TRTA","Ongoing","2015-11-17","2015-12-30","44","Y","1","Adverse Events","2016-01-02","47","2016-09-29","318","2","N",1,"This mark definitely represents the Adverse Events domain"
"04-003","Clinical Site 04","04","25","M","Other/Mixed","Treatment A","TRTA","Ongoing","2015-11-17","2015-12-30","44","Y","1","Adverse Events","2016-01-03","48","2016-01-11","56","3","N",1,"This mark definitely represents the Adverse Events domain"
"04-003","Clinical Site 04","04","25","M","Other/Mixed","Treatment A","TRTA","Ongoing","2015-11-17","2015-12-30","44","Y","1","Adverse Events","2016-03-01","106","2016-10-09","328","4","N",1,"This mark definitely represents the Adverse Events domain"
"04-003","Clinical Site 04","04","25","M","Other/Mixed","Treatment A","TRTA","Ongoing","2015-11-17","2015-12-30","44","Y","1","Adverse Events","2016-04-17","153","2016-07-01","228","5","N",1,"This mark definitely represents the Adverse Events domain"
"04-003","Clinical Site 04","04","25","M","Other/Mixed","Treatment A","TRTA","Ongoing","2015-11-17","2015-12-30","44","Y","1","Concomitant Medications","2015-11-24","8","2015-12-01","15","1","N",2,"This mark definitely represents the Concomitant Medications domain"
"04-003","Clinical Site 04","04","25","M","Other/Mixed","Treatment A","TRTA","Ongoing","2015-11-17","2015-12-30","44","Y","1","Concomitant Medications","2016-01-02","47","2016-08-10","268","2","Y",2,"This mark definitely represents the Concomitant Medications domain"
"04-003","Clinical Site 04","04","25","M","Other/Mixed","Treatment A","TRTA","Ongoing","2015-11-17","2015-12-30","44","Y","1","Concomitant Medications","2016-01-20","65","2016-05-11","177","3","N",2,"This mark definitely represents the Concomitant Medications domain"
"04-003","Clinical Site 04","04","25","M","Other/Mixed","Treatment A","TRTA","Ongoing","2015-11-17","2015-12-30","44","Y","1","Concomitant Medications","2016-05-01","167","2016-08-06","264","4","N",2,"This mark definitely represents the Concomitant Medications domain"
"04-003","Clinical Site 04","04","25","M","Other/Mixed","Treatment A","TRTA","Ongoing","2015-11-17","2015-12-30","44","Y","1","Enrollment","2015-11-17","1","2015-11-17","1","1",,0,"This mark definitely represents the Enrollment domain"
"04-003","Clinical Site 04","04","25","M","Other/Mixed","Treatment A","TRTA","Ongoing","2015-11-17","2015-12-30","44","Y","1","Randomization","2016-01-05","50","2016-01-05","50","1",,0,"This mark definitely represents the Randomization domain"
"04-003","Clinical Site 04","04","25","M","Other/Mixed","Treatment A","TRTA","Ongoing","2015-11-17","2015-12-30","44","Y","1","Study Completion","2016-11-13","363","2016-11-13","363","1",,0,"This mark definitely represents the Study Completion domain"
"04-004","Clinical Site 04","04","39","M","Black","Placebo","PLACEBO","Ongoing","2015-08-03","2016-01-10","161","Y","1","Adverse Events","2016-01-16","167","2016-01-17","168","1","N",1,"This mark definitely represents the Adverse Events domain"
"04-004","Clinical Site 04","04","39","M","Black","Placebo","PLACEBO","Ongoing","2015-08-03","2016-01-10","161","Y","1","Adverse Events","2016-01-22","173","2016-03-24","235","2","N",1,"This mark definitely represents the Adverse Events domain"
"04-004","Clinical Site 04","04","39","M","Black","Placebo","PLACEBO","Ongoing","2015-08-03","2016-01-10","161","Y","1","Adverse Events","2016-01-31","182","2016-02-05","187","3","N",1,"This mark definitely represents the Adverse Events domain"
"04-004","Clinical Site 04","04","39","M","Black","Placebo","PLACEBO","Ongoing","2015-08-03","2016-01-10","161","Y","1","Concomitant Medications","2015-09-19","48","2016-02-29","211","1","N",2,"This mark definitely represents the Concomitant Medications domain"
"04-004","Clinical Site 04","04","39","M","Black","Placebo","PLACEBO","Ongoing","2015-08-03","2016-01-10","161","Y","1","Concomitant Medications","2016-05-22","294","2016-07-01","334","2","N",2,"This mark definitely represents the Concomitant Medications domain"
"04-004","Clinical Site 04","04","39","M","Black","Placebo","PLACEBO","Ongoing","2015-08-03","2016-01-10","161","Y","1","Enrollment","2015-08-03","1","2015-08-03","1","1",,0,"This mark definitely represents the Enrollment domain"
"04-004","Clinical Site 04","04","39","M","Black","Placebo","PLACEBO","Ongoing","2015-08-03","2016-01-10","161","Y","1","Randomization","2015-09-28","57","2015-09-28","57","1",,0,"This mark definitely represents the Randomization domain"
"04-004","Clinical Site 04","04","39","M","Black","Placebo","PLACEBO","Ongoing","2015-08-03","2016-01-10","161","Y","1","Study Completion","2016-07-26","359","2016-07-26","359","1",,0,"This mark definitely represents the Study Completion domain"
"04-005","Clinical Site 04","04","42","M","White","Treatment B","TRTB","Completed","2015-08-17","2016-08-20","370","Y","1","Adverse Events","2015-08-23","7","2016-02-24","192","1","N",1,"This mark definitely represents the Adverse Events domain"
"04-005","Clinical Site 04","04","42","M","White","Treatment B","TRTB","Completed","2015-08-17","2016-08-20","370","Y","1","Adverse Events","2016-01-04","141","2016-03-08","205","2","N",1,"This mark definitely represents the Adverse Events domain"
"04-005","Clinical Site 04","04","42","M","White","Treatment B","TRTB","Completed","2015-08-17","2016-08-20","370","Y","1","Adverse Events","2016-03-04","201","2016-06-11","300","3","N",1,"This mark definitely represents the Adverse Events domain"
"04-005","Clinical Site 04","04","42","M","White","Treatment B","TRTB","Completed","2015-08-17","2016-08-20","370","Y","1","Adverse Events","2016-03-14","211","2016-04-03","231","4","Y",1,"This mark definitely represents the Adverse Events domain"
"04-005","Clinical Site 04","04","42","M","White","Treatment B","TRTB","Completed","2015-08-17","2016-08-20","370","Y","1","Adverse Events","2016-04-14","242","2016-05-26","284","5","Y",1,"This mark definitely represents the Adverse Events domain"
"04-005","Clinical Site 04","04","42","M","White","Treatment B","TRTB","Completed","2015-08-17","2016-08-20","370","Y","1","Concomitant Medications","2016-02-25","193","2016-04-07","235","1","Y",2,"This mark definitely represents the Concomitant Medications domain"
"04-005","Clinical Site 04","04","42","M","White","Treatment B","TRTB","Completed","2015-08-17","2016-08-20","370","Y","1","Enrollment","2015-08-17","1","2015-08-17","1","1",,0,"This mark definitely represents the Enrollment domain"
"04-005","Clinical Site 04","04","42","M","White","Treatment B","TRTB","Completed","2015-08-17","2016-08-20","370","Y","1","Randomization","2015-10-15","60","2015-10-15","60","1",,0,"This mark definitely represents the Randomization domain"
"04-005","Clinical Site 04","04","42","M","White","Treatment B","TRTB","Completed","2015-08-17","2016-08-20","370","Y","1","Study Completion","2016-08-13","363","2016-08-13","363","1",,0,"This mark definitely represents the Study Completion domain"
"04-006","Clinical Site 04","04","29","M","White","Screen Failure","SCRNFAIL","Screen Failure","2015-10-31","2015-10-31","1","N","0","Enrollment","2015-10-31","1","2015-10-31","1","1",,0,"This mark definitely represents the Enrollment domain"
"04-007","Clinical Site 04","04","24","M","Hispanic","Treatment B","TRTB","Completed","2015-04-15","2016-04-08","360","Y","1","Adverse Events","2015-05-02","18","2016-03-21","342","1","Y",1,"This mark definitely represents the Adverse Events domain"
"04-007","Clinical Site 04","04","24","M","Hispanic","Treatment B","TRTB","Completed","2015-04-15","2016-04-08","360","Y","1","Concomitant Medications","2015-09-11","150","2015-11-06","206","1","N",2,"This mark definitely represents the Concomitant Medications domain"
"04-007","Clinical Site 04","04","24","M","Hispanic","Treatment B","TRTB","Completed","2015-04-15","2016-04-08","360","Y","1","Concomitant Medications","2015-09-27","166","2016-03-06","327","2","Y",2,"This mark definitely represents the Concomitant Medications domain"
"04-007","Clinical Site 04","04","24","M","Hispanic","Treatment B","TRTB","Completed","2015-04-15","2016-04-08","360","Y","1","Concomitant Medications","2016-02-13","305","2016-03-16","337","3","N",2,"This mark definitely represents the Concomitant Medications domain"
"04-007","Clinical Site 04","04","24","M","Hispanic","Treatment B","TRTB","Completed","2015-04-15","2016-04-08","360","Y","1","Enrollment","2015-04-15","1","2015-04-15","1","1",,0,"This mark definitely represents the Enrollment domain"
"04-007","Clinical Site 04","04","24","M","Hispanic","Treatment B","TRTB","Completed","2015-04-15","2016-04-08","360","Y","1","Randomization","2015-06-07","54","2015-06-07","54","1",,0,"This mark definitely represents the Randomization domain"
"04-007","Clinical Site 04","04","24","M","Hispanic","Treatment B","TRTB","Completed","2015-04-15","2016-04-08","360","Y","1","Study Completion","2016-04-15","367","2016-04-15","367","1",,0,"This mark definitely represents the Study Completion domain"
"04-008","Clinical Site 04","04","31","F","Black","Placebo","PLACEBO","Completed","2015-04-10","2016-04-02","359","Y","1","Adverse Events","2015-04-10","1","2015-09-18","162","1","N",1,"This mark definitely represents the Adverse Events domain"
"04-008","Clinical Site 04","04","31","F","Black","Placebo","PLACEBO","Completed","2015-04-10","2016-04-02","359","Y","1","Adverse Events","2015-05-08","29","2015-08-07","120","2","Y",1,"This mark definitely represents the Adverse Events domain"
"04-008","Clinical Site 04","04","31","F","Black","Placebo","PLACEBO","Completed","2015-04-10","2016-04-02","359","Y","1","Adverse Events","2015-11-16","221","2016-04-07","364","3","N",1,"This mark definitely represents the Adverse Events domain"
"04-008","Clinical Site 04","04","31","F","Black","Placebo","PLACEBO","Completed","2015-04-10","2016-04-02","359","Y","1","Adverse Events","2015-11-25","230","2015-11-30","235","4","N",1,"This mark definitely represents the Adverse Events domain"
"04-008","Clinical Site 04","04","31","F","Black","Placebo","PLACEBO","Completed","2015-04-10","2016-04-02","359","Y","1","Concomitant Medications","2015-07-23","105","2015-11-20","225","1","N",2,"This mark definitely represents the Concomitant Medications domain"
"04-008","Clinical Site 04","04","31","F","Black","Placebo","PLACEBO","Completed","2015-04-10","2016-04-02","359","Y","1","Concomitant Medications","2015-11-17","222","2015-12-13","248","2","Y",2,"This mark definitely represents the Concomitant Medications domain"
"04-008","Clinical Site 04","04","31","F","Black","Placebo","PLACEBO","Completed","2015-04-10","2016-04-02","359","Y","1","Enrollment","2015-04-10","1","2015-04-10","1","1",,0,"This mark definitely represents the Enrollment domain"
"04-008","Clinical Site 04","04","31","F","Black","Placebo","PLACEBO","Completed","2015-04-10","2016-04-02","359","Y","1","Randomization","2015-06-02","54","2015-06-02","54","1",,0,"This mark definitely represents the Randomization domain"
"04-008","Clinical Site 04","04","31","F","Black","Placebo","PLACEBO","Completed","2015-04-10","2016-04-02","359","Y","1","Study Completion","2016-04-18","375","2016-04-18","375","1",,0,"This mark definitely represents the Study Completion domain"
"04-009","Clinical Site 04","04","39","F","Hispanic","Placebo","PLACEBO","Ongoing","2015-01-22","2015-10-27","279","Y","1","Adverse Events","2015-02-05","15","2016-01-11","355","1","Y",1,"This mark definitely represents the Adverse Events domain"
"04-009","Clinical Site 04","04","39","F","Hispanic","Placebo","PLACEBO","Ongoing","2015-01-22","2015-10-27","279","Y","1","Adverse Events","2015-02-07","17","2015-07-21","181","2","N",1,"This mark definitely represents the Adverse Events domain"
"04-009","Clinical Site 04","04","39","F","Hispanic","Placebo","PLACEBO","Ongoing","2015-01-22","2015-10-27","279","Y","1","Adverse Events","2015-02-17","27","2015-06-28","158","3","Y",1,"This mark definitely represents the Adverse Events domain"
"04-009","Clinical Site 04","04","39","F","Hispanic","Placebo","PLACEBO","Ongoing","2015-01-22","2015-10-27","279","Y","1","Adverse Events","2015-05-04","103","2015-08-24","215","4","N",1,"This mark definitely represents the Adverse Events domain"
"04-009","Clinical Site 04","04","39","F","Hispanic","Placebo","PLACEBO","Ongoing","2015-01-22","2015-10-27","279","Y","1","Adverse Events","2016-01-02","346","2016-01-09","353","5","N",1,"This mark definitely represents the Adverse Events domain"
"04-009","Clinical Site 04","04","39","F","Hispanic","Placebo","PLACEBO","Ongoing","2015-01-22","2015-10-27","279","Y","1","Concomitant Medications","2015-01-23","2","2015-09-08","230","1","Y",2,"This mark definitely represents the Concomitant Medications domain"
"04-009","Clinical Site 04","04","39","F","Hispanic","Placebo","PLACEBO","Ongoing","2015-01-22","2015-10-27","279","Y","1","Concomitant Medications","2015-04-04","73","2015-05-10","109","2","Y",2,"This mark definitely represents the Concomitant Medications domain"
"04-009","Clinical Site 04","04","39","F","Hispanic","Placebo","PLACEBO","Ongoing","2015-01-22","2015-10-27","279","Y","1","Concomitant Medications","2015-06-05","135","2015-09-13","235","3","N",2,"This mark definitely represents the Concomitant Medications domain"
"04-009","Clinical Site 04","04","39","F","Hispanic","Placebo","PLACEBO","Ongoing","2015-01-22","2015-10-27","279","Y","1","Concomitant Medications","2015-06-29","159","2015-11-06","289","4","Y",2,"This mark definitely represents the Concomitant Medications domain"
"04-009","Clinical Site 04","04","39","F","Hispanic","Placebo","PLACEBO","Ongoing","2015-01-22","2015-10-27","279","Y","1","Concomitant Medications","2015-11-30","313","2016-01-06","350","5","Y",2,"This mark definitely represents the Concomitant Medications domain"
"04-009","Clinical Site 04","04","39","F","Hispanic","Placebo","PLACEBO","Ongoing","2015-01-22","2015-10-27","279","Y","1","Enrollment","2015-01-22","1","2015-01-22","1","1",,0,"This mark definitely represents the Enrollment domain"
"04-009","Clinical Site 04","04","39","F","Hispanic","Placebo","PLACEBO","Ongoing","2015-01-22","2015-10-27","279","Y","1","Randomization","2015-03-21","59","2015-03-21","59","1",,0,"This mark definitely represents the Randomization domain"
"04-009","Clinical Site 04","04","39","F","Hispanic","Placebo","PLACEBO","Ongoing","2015-01-22","2015-10-27","279","Y","1","Study Completion","2016-01-30","374","2016-01-30","374","1",,0,"This mark definitely represents the Study Completion domain"
"04-010","Clinical Site 04","04","18","F","White","Treatment B","TRTB","Ongoing","2015-12-14","2016-10-04","296","Y","1","Concomitant Medications","2016-01-14","32","2016-07-13","213","1","Y",2,"This mark definitely represents the Concomitant Medications domain"
"04-010","Clinical Site 04","04","18","F","White","Treatment B","TRTB","Ongoing","2015-12-14","2016-10-04","296","Y","1","Concomitant Medications","2016-01-31","49","2016-03-11","89","2","Y",2,"This mark definitely represents the Concomitant Medications domain"
"04-010","Clinical Site 04","04","18","F","White","Treatment B","TRTB","Ongoing","2015-12-14","2016-10-04","296","Y","1","Concomitant Medications","2016-08-12","243","2016-10-18","310","3","N",2,"This mark definitely represents the Concomitant Medications domain"
"04-010","Clinical Site 04","04","18","F","White","Treatment B","TRTB","Ongoing","2015-12-14","2016-10-04","296","Y","1","Concomitant Medications","2016-09-04","266","2016-11-10","333","4","N",2,"This mark definitely represents the Concomitant Medications domain"
"04-010","Clinical Site 04","04","18","F","White","Treatment B","TRTB","Ongoing","2015-12-14","2016-10-04","296","Y","1","Concomitant Medications","2016-10-22","314","2016-11-01","324","5","N",2,"This mark definitely represents the Concomitant Medications domain"
"04-010","Clinical Site 04","04","18","F","White","Treatment B","TRTB","Ongoing","2015-12-14","2016-10-04","296","Y","1","Enrollment","2015-12-14","1","2015-12-14","1","1",,0,"This mark definitely represents the Enrollment domain"
"04-010","Clinical Site 04","04","18","F","White","Treatment B","TRTB","Ongoing","2015-12-14","2016-10-04","296","Y","1","Randomization","2016-02-11","60","2016-02-11","60","1",,0,"This mark definitely represents the Randomization domain"
"04-010","Clinical Site 04","04","18","F","White","Treatment B","TRTB","Ongoing","2015-12-14","2016-10-04","296","Y","1","Study Completion","2016-12-14","367","2016-12-14","367","1",,0,"This mark definitely represents the Study Completion domain"
"04-011","Clinical Site 04","04","48","M","Other/Mixed","Treatment B","TRTB","Completed","2015-10-16","2016-10-20","371","Y","1","Adverse Events","2015-11-23","39","2016-08-18","308","1","Y",1,"This mark definitely represents the Adverse Events domain"
"04-011","Clinical Site 04","04","48","M","Other/Mixed","Treatment B","TRTB","Completed","2015-10-16","2016-10-20","371","Y","1","Adverse Events","2016-04-12","180","2016-04-24","192","2","Y",1,"This mark definitely represents the Adverse Events domain"
"04-011","Clinical Site 04","04","48","M","Other/Mixed","Treatment B","TRTB","Completed","2015-10-16","2016-10-20","371","Y","1","Adverse Events","2016-05-12","210","2016-05-13","211","3","N",1,"This mark definitely represents the Adverse Events domain"
"04-011","Clinical Site 04","04","48","M","Other/Mixed","Treatment B","TRTB","Completed","2015-10-16","2016-10-20","371","Y","1","Adverse Events","2016-05-23","221","2016-07-10","269","4","Y",1,"This mark definitely represents the Adverse Events domain"
"04-011","Clinical Site 04","04","48","M","Other/Mixed","Treatment B","TRTB","Completed","2015-10-16","2016-10-20","371","Y","1","Adverse Events","2016-08-11","301","2016-08-31","321","5","Y",1,"This mark definitely represents the Adverse Events domain"
"04-011","Clinical Site 04","04","48","M","Other/Mixed","Treatment B","TRTB","Completed","2015-10-16","2016-10-20","371","Y","1","Concomitant Medications","2015-10-17","2","2016-03-16","153","1","N",2,"This mark definitely represents the Concomitant Medications domain"
"04-011","Clinical Site 04","04","48","M","Other/Mixed","Treatment B","TRTB","Completed","2015-10-16","2016-10-20","371","Y","1","Concomitant Medications","2015-12-29","75","2016-05-11","209","2","Y",2,"This mark definitely represents the Concomitant Medications domain"
"04-011","Clinical Site 04","04","48","M","Other/Mixed","Treatment B","TRTB","Completed","2015-10-16","2016-10-20","371","Y","1","Concomitant Medications","2016-02-16","124","2016-08-21","311","3","N",2,"This mark definitely represents the Concomitant Medications domain"
"04-011","Clinical Site 04","04","48","M","Other/Mixed","Treatment B","TRTB","Completed","2015-10-16","2016-10-20","371","Y","1","Concomitant Medications","2016-04-01","169","2016-07-16","275","4","N",2,"This mark definitely represents the Concomitant Medications domain"
"04-011","Clinical Site 04","04","48","M","Other/Mixed","Treatment B","TRTB","Completed","2015-10-16","2016-10-20","371","Y","1","Concomitant Medications","2016-09-15","336","2016-09-28","349","5","N",2,"This mark definitely represents the Concomitant Medications domain"
"04-011","Clinical Site 04","04","48","M","Other/Mixed","Treatment B","TRTB","Completed","2015-10-16","2016-10-20","371","Y","1","Enrollment","2015-10-16","1","2015-10-16","1","1",,0,"This mark definitely represents the Enrollment domain"
"04-011","Clinical Site 04","04","48","M","Other/Mixed","Treatment B","TRTB","Completed","2015-10-16","2016-10-20","371","Y","1","Randomization","2015-12-09","55","2015-12-09","55","1",,0,"This mark definitely represents the Randomization domain"
"04-011","Clinical Site 04","04","48","M","Other/Mixed","Treatment B","TRTB","Completed","2015-10-16","2016-10-20","371","Y","1","Study Completion","2016-10-07","358","2016-10-07","358","1",,0,"This mark definitely represents the Study Completion domain"
"04-012","Clinical Site 04","04","33","M","Black","Treatment B","TRTB","Completed","2015-06-26","2016-06-16","357","Y","1","Enrollment","2015-06-26","1","2015-06-26","1","1",,0,"This mark definitely represents the Enrollment domain"
"04-012","Clinical Site 04","04","33","M","Black","Treatment B","TRTB","Completed","2015-06-26","2016-06-16","357","Y","1","Randomization","2015-08-23","59","2015-08-23","59","1",,0,"This mark definitely represents the Randomization domain"
"04-012","Clinical Site 04","04","33","M","Black","Treatment B","TRTB","Completed","2015-06-26","2016-06-16","357","Y","1","Study Completion","2016-06-20","361","2016-06-20","361","1",,0,"This mark definitely represents the Study Completion domain"
"04-013","Clinical Site 04","04","19","M","Hispanic","Treatment A","TRTA","Completed","2015-04-22","2016-04-24","369","Y","1","Adverse Events","2015-05-14","23","2015-12-16","239","1","Y",1,"This mark definitely represents the Adverse Events domain"
"04-013","Clinical Site 04","04","19","M","Hispanic","Treatment A","TRTA","Completed","2015-04-22","2016-04-24","369","Y","1","Adverse Events","2015-12-09","232","2016-02-12","297","2","N",1,"This mark definitely represents the Adverse Events domain"
"04-013","Clinical Site 04","04","19","M","Hispanic","Treatment A","TRTA","Completed","2015-04-22","2016-04-24","369","Y","1","Adverse Events","2016-01-01","255","2016-02-13","298","3","N",1,"This mark definitely represents the Adverse Events domain"
"04-013","Clinical Site 04","04","19","M","Hispanic","Treatment A","TRTA","Completed","2015-04-22","2016-04-24","369","Y","1","Adverse Events","2016-02-01","286","2016-02-06","291","4","Y",1,"This mark definitely represents the Adverse Events domain"
"04-013","Clinical Site 04","04","19","M","Hispanic","Treatment A","TRTA","Completed","2015-04-22","2016-04-24","369","Y","1","Adverse Events","2016-03-06","320","2016-04-14","359","5","N",1,"This mark definitely represents the Adverse Events domain"
"04-013","Clinical Site 04","04","19","M","Hispanic","Treatment A","TRTA","Completed","2015-04-22","2016-04-24","369","Y","1","Concomitant Medications","2015-05-07","16","2015-11-15","208","1","N",2,"This mark definitely represents the Concomitant Medications domain"
"04-013","Clinical Site 04","04","19","M","Hispanic","Treatment A","TRTA","Completed","2015-04-22","2016-04-24","369","Y","1","Concomitant Medications","2015-05-26","35","2015-08-04","105","2","N",2,"This mark definitely represents the Concomitant Medications domain"
"04-013","Clinical Site 04","04","19","M","Hispanic","Treatment A","TRTA","Completed","2015-04-22","2016-04-24","369","Y","1","Concomitant Medications","2015-10-12","174","2015-11-07","200","3","N",2,"This mark definitely represents the Concomitant Medications domain"
"04-013","Clinical Site 04","04","19","M","Hispanic","Treatment A","TRTA","Completed","2015-04-22","2016-04-24","369","Y","1","Concomitant Medications","2016-02-11","296","2016-02-21","306","4","Y",2,"This mark definitely represents the Concomitant Medications domain"
"04-013","Clinical Site 04","04","19","M","Hispanic","Treatment A","TRTA","Completed","2015-04-22","2016-04-24","369","Y","1","Concomitant Medications","2016-02-19","304","2016-03-17","331","5","N",2,"This mark definitely represents the Concomitant Medications domain"
"04-013","Clinical Site 04","04","19","M","Hispanic","Treatment A","TRTA","Completed","2015-04-22","2016-04-24","369","Y","1","Enrollment","2015-04-22","1","2015-04-22","1","1",,0,"This mark definitely represents the Enrollment domain"
"04-013","Clinical Site 04","04","19","M","Hispanic","Treatment A","TRTA","Completed","2015-04-22","2016-04-24","369","Y","1","Randomization","2015-06-18","58","2015-06-18","58","1",,0,"This mark definitely represents the Randomization domain"
"04-013","Clinical Site 04","04","19","M","Hispanic","Treatment A","TRTA","Completed","2015-04-22","2016-04-24","369","Y","1","Study Completion","2016-04-28","373","2016-04-28","373","1",,0,"This mark definitely represents the Study Completion domain"
"04-014","Clinical Site 04","04","36","M","Other/Mixed","Treatment B","TRTB","Ongoing","2015-05-14","2015-10-28","168","Y","1","Concomitant Medications","2015-06-12","30","2015-09-10","120","1","Y",2,"This mark definitely represents the Concomitant Medications domain"
"04-014","Clinical Site 04","04","36","M","Other/Mixed","Treatment B","TRTB","Ongoing","2015-05-14","2015-10-28","168","Y","1","Concomitant Medications","2016-01-12","244","2016-03-18","310","2","N",2,"This mark definitely represents the Concomitant Medications domain"
"04-014","Clinical Site 04","04","36","M","Other/Mixed","Treatment B","TRTB","Ongoing","2015-05-14","2015-10-28","168","Y","1","Concomitant Medications","2016-02-14","277","2016-03-07","299","3","Y",2,"This mark definitely represents the Concomitant Medications domain"
"04-014","Clinical Site 04","04","36","M","Other/Mixed","Treatment B","TRTB","Ongoing","2015-05-14","2015-10-28","168","Y","1","Enrollment","2015-05-14","1","2015-05-14","1","1",,0,"This mark definitely represents the Enrollment domain"
"04-014","Clinical Site 04","04","36","M","Other/Mixed","Treatment B","TRTB","Ongoing","2015-05-14","2015-10-28","168","Y","1","Randomization","2015-07-06","54","2015-07-06","54","1",,0,"This mark definitely represents the Randomization domain"
"04-014","Clinical Site 04","04","36","M","Other/Mixed","Treatment B","TRTB","Ongoing","2015-05-14","2015-10-28","168","Y","1","Study Completion","2016-05-20","373","2016-05-20","373","1",,0,"This mark definitely represents the Study Completion domain"
"04-015","Clinical Site 04","04","40","F","Hispanic","Treatment B","TRTB","Ongoing","2015-11-26","2016-06-08","196","Y","1","Concomitant Medications","2016-02-05","72","2016-09-01","281","1","N",2,"This mark definitely represents the Concomitant Medications domain"
"04-015","Clinical Site 04","04","40","F","Hispanic","Treatment B","TRTB","Ongoing","2015-11-26","2016-06-08","196","Y","1","Concomitant Medications","2016-09-03","283","2016-10-13","323","2","N",2,"This mark definitely represents the Concomitant Medications domain"
"04-015","Clinical Site 04","04","40","F","Hispanic","Treatment B","TRTB","Ongoing","2015-11-26","2016-06-08","196","Y","1","Concomitant Medications","2016-10-19","329","2016-11-06","347","3","Y",2,"This mark definitely represents the Concomitant Medications domain"
"04-015","Clinical Site 04","04","40","F","Hispanic","Treatment B","TRTB","Ongoing","2015-11-26","2016-06-08","196","Y","1","Concomitant Medications","2016-10-27","337","2016-11-04","345","4","N",2,"This mark definitely represents the Concomitant Medications domain"
"04-015","Clinical Site 04","04","40","F","Hispanic","Treatment B","TRTB","Ongoing","2015-11-26","2016-06-08","196","Y","1","Enrollment","2015-11-26","1","2015-11-26","1","1",,0,"This mark definitely represents the Enrollment domain"
"04-015","Clinical Site 04","04","40","F","Hispanic","Treatment B","TRTB","Ongoing","2015-11-26","2016-06-08","196","Y","1","Randomization","2016-01-25","61","2016-01-25","61","1",,0,"This mark definitely represents the Randomization domain"
"04-015","Clinical Site 04","04","40","F","Hispanic","Treatment B","TRTB","Ongoing","2015-11-26","2016-06-08","196","Y","1","Study Completion","2016-11-21","362","2016-11-21","362","1",,0,"This mark definitely represents the Study Completion domain"
"04-016","Clinical Site 04","04","40","M","Hispanic","Treatment A","TRTA","Ongoing","2015-04-27","2016-03-07","316","Y","1","Adverse Events","2015-07-20","85","2015-11-13","201","1","Y",1,"This mark definitely represents the Adverse Events domain"
"04-016","Clinical Site 04","04","40","M","Hispanic","Treatment A","TRTA","Ongoing","2015-04-27","2016-03-07","316","Y","1","Adverse Events","2015-09-12","139","2016-02-28","308","2","Y",1,"This mark definitely represents the Adverse Events domain"
"04-016","Clinical Site 04","04","40","M","Hispanic","Treatment A","TRTA","Ongoing","2015-04-27","2016-03-07","316","Y","1","Adverse Events","2016-01-03","252","2016-04-10","350","3","N",1,"This mark definitely represents the Adverse Events domain"
"04-016","Clinical Site 04","04","40","M","Hispanic","Treatment A","TRTA","Ongoing","2015-04-27","2016-03-07","316","Y","1","Adverse Events","2016-02-14","294","2016-03-28","337","4","N",1,"This mark definitely represents the Adverse Events domain"
"04-016","Clinical Site 04","04","40","M","Hispanic","Treatment A","TRTA","Ongoing","2015-04-27","2016-03-07","316","Y","1","Enrollment","2015-04-27","1","2015-04-27","1","1",,0,"This mark definitely represents the Enrollment domain"
"04-016","Clinical Site 04","04","40","M","Hispanic","Treatment A","TRTA","Ongoing","2015-04-27","2016-03-07","316","Y","1","Randomization","2015-06-17","52","2015-06-17","52","1",,0,"This mark definitely represents the Randomization domain"
"04-016","Clinical Site 04","04","40","M","Hispanic","Treatment A","TRTA","Ongoing","2015-04-27","2016-03-07","316","Y","1","Study Completion","2016-05-01","371","2016-05-01","371","1",,0,"This mark definitely represents the Study Completion domain"
"04-017","Clinical Site 04","04","42","M","Other/Mixed","Screen Failure","SCRNFAIL","Screen Failure","2015-01-26","2015-01-26","1","N","0","Enrollment","2015-01-26","1","2015-01-26","1","1",,0,"This mark definitely represents the Enrollment domain"
"04-018","Clinical Site 04","04","26","F","White","Screen Failure","SCRNFAIL","Screen Failure","2015-06-13","2015-06-13","1","N","0","Enrollment","2015-06-13","1","2015-06-13","1","1",,0,"This mark definitely represents the Enrollment domain"
"04-019","Clinical Site 04","04","55","F","Other/Mixed","Placebo","PLACEBO","Ongoing","2015-01-20","2015-07-03","165","Y","1","Adverse Events","2015-02-18","30","2015-03-25","65","1","N",1,"This mark definitely represents the Adverse Events domain"
"04-019","Clinical Site 04","04","55","F","Other/Mixed","Placebo","PLACEBO","Ongoing","2015-01-20","2015-07-03","165","Y","1","Adverse Events","2015-03-04","44","2015-11-07","292","2","N",1,"This mark definitely represents the Adverse Events domain"
"04-019","Clinical Site 04","04","55","F","Other/Mixed","Placebo","PLACEBO","Ongoing","2015-01-20","2015-07-03","165","Y","1","Adverse Events","2015-03-12","52","2015-11-28","313","3","N",1,"This mark definitely represents the Adverse Events domain"
"04-019","Clinical Site 04","04","55","F","Other/Mixed","Placebo","PLACEBO","Ongoing","2015-01-20","2015-07-03","165","Y","1","Adverse Events","2015-07-03","165","2015-12-23","338","4","N",1,"This mark definitely represents the Adverse Events domain"
"04-019","Clinical Site 04","04","55","F","Other/Mixed","Placebo","PLACEBO","Ongoing","2015-01-20","2015-07-03","165","Y","1","Adverse Events","2015-07-31","193","2015-10-18","272","5","Y",1,"This mark definitely represents the Adverse Events domain"
"04-019","Clinical Site 04","04","55","F","Other/Mixed","Placebo","PLACEBO","Ongoing","2015-01-20","2015-07-03","165","Y","1","Concomitant Medications","2015-01-24","5","2015-01-28","9","1","Y",2,"This mark definitely represents the Concomitant Medications domain"
"04-019","Clinical Site 04","04","55","F","Other/Mixed","Placebo","PLACEBO","Ongoing","2015-01-20","2015-07-03","165","Y","1","Concomitant Medications","2015-02-14","26","2015-12-14","329","2","Y",2,"This mark definitely represents the Concomitant Medications domain"
"04-019","Clinical Site 04","04","55","F","Other/Mixed","Placebo","PLACEBO","Ongoing","2015-01-20","2015-07-03","165","Y","1","Concomitant Medications","2015-08-07","200","2015-08-26","219","3","N",2,"This mark definitely represents the Concomitant Medications domain"
"04-019","Clinical Site 04","04","55","F","Other/Mixed","Placebo","PLACEBO","Ongoing","2015-01-20","2015-07-03","165","Y","1","Enrollment","2015-01-20","1","2015-01-20","1","1",,0,"This mark definitely represents the Enrollment domain"
"04-019","Clinical Site 04","04","55","F","Other/Mixed","Placebo","PLACEBO","Ongoing","2015-01-20","2015-07-03","165","Y","1","Randomization","2015-03-12","52","2015-03-12","52","1",,0,"This mark definitely represents the Randomization domain"
"04-019","Clinical Site 04","04","55","F","Other/Mixed","Placebo","PLACEBO","Ongoing","2015-01-20","2015-07-03","165","Y","1","Study Completion","2016-01-25","371","2016-01-25","371","1",,0,"This mark definitely represents the Study Completion domain"
"04-020","Clinical Site 04","04","24","F","White","Treatment B","TRTB","Ongoing","2015-09-14","2015-10-12","29","Y","1","Adverse Events","2015-10-27","44","2015-11-13","61","1","N",1,"This mark definitely represents the Adverse Events domain"
"04-020","Clinical Site 04","04","24","F","White","Treatment B","TRTB","Ongoing","2015-09-14","2015-10-12","29","Y","1","Adverse Events","2015-11-05","53","2016-01-29","138","2","N",1,"This mark definitely represents the Adverse Events domain"
"04-020","Clinical Site 04","04","24","F","White","Treatment B","TRTB","Ongoing","2015-09-14","2015-10-12","29","Y","1","Adverse Events","2015-12-01","79","2016-07-20","311","3","N",1,"This mark definitely represents the Adverse Events domain"
"04-020","Clinical Site 04","04","24","F","White","Treatment B","TRTB","Ongoing","2015-09-14","2015-10-12","29","Y","1","Adverse Events","2015-12-12","90","2016-06-03","264","4","Y",1,"This mark definitely represents the Adverse Events domain"
"04-020","Clinical Site 04","04","24","F","White","Treatment B","TRTB","Ongoing","2015-09-14","2015-10-12","29","Y","1","Concomitant Medications","2015-10-09","26","2016-07-01","292","1","Y",2,"This mark definitely represents the Concomitant Medications domain"
"04-020","Clinical Site 04","04","24","F","White","Treatment B","TRTB","Ongoing","2015-09-14","2015-10-12","29","Y","1","Concomitant Medications","2016-02-25","165","2016-03-29","198","2","N",2,"This mark definitely represents the Concomitant Medications domain"
"04-020","Clinical Site 04","04","24","F","White","Treatment B","TRTB","Ongoing","2015-09-14","2015-10-12","29","Y","1","Concomitant Medications","2016-03-24","193","2016-09-12","365","3","Y",2,"This mark definitely represents the Concomitant Medications domain"
"04-020","Clinical Site 04","04","24","F","White","Treatment B","TRTB","Ongoing","2015-09-14","2015-10-12","29","Y","1","Concomitant Medications","2016-07-02","293","2016-08-20","342","4","N",2,"This mark definitely represents the Concomitant Medications domain"
"04-020","Clinical Site 04","04","24","F","White","Treatment B","TRTB","Ongoing","2015-09-14","2015-10-12","29","Y","1","Enrollment","2015-09-14","1","2015-09-14","1","1",,0,"This mark definitely represents the Enrollment domain"
"04-020","Clinical Site 04","04","24","F","White","Treatment B","TRTB","Ongoing","2015-09-14","2015-10-12","29","Y","1","Randomization","2015-11-02","50","2015-11-02","50","1",,0,"This mark definitely represents the Randomization domain"
"04-020","Clinical Site 04","04","24","F","White","Treatment B","TRTB","Ongoing","2015-09-14","2015-10-12","29","Y","1","Study Completion","2016-09-10","363","2016-09-10","363","1",,0,"This mark definitely represents the Study Completion domain"
"04-021","Clinical Site 04","04","21","M","White","Placebo","PLACEBO","Ongoing","2015-06-20","2015-09-01","74","Y","1","Adverse Events","2015-07-24","35","2015-12-09","173","1","Y",1,"This mark definitely represents the Adverse Events domain"
"04-021","Clinical Site 04","04","21","M","White","Placebo","PLACEBO","Ongoing","2015-06-20","2015-09-01","74","Y","1","Adverse Events","2015-08-05","47","2016-06-01","348","2","N",1,"This mark definitely represents the Adverse Events domain"
"04-021","Clinical Site 04","04","21","M","White","Placebo","PLACEBO","Ongoing","2015-06-20","2015-09-01","74","Y","1","Adverse Events","2015-11-18","152","2015-12-25","189","3","Y",1,"This mark definitely represents the Adverse Events domain"
"04-021","Clinical Site 04","04","21","M","White","Placebo","PLACEBO","Ongoing","2015-06-20","2015-09-01","74","Y","1","Adverse Events","2015-12-28","192","2016-05-21","337","4","N",1,"This mark definitely represents the Adverse Events domain"
"04-021","Clinical Site 04","04","21","M","White","Placebo","PLACEBO","Ongoing","2015-06-20","2015-09-01","74","Y","1","Adverse Events","2016-02-27","253","2016-04-10","296","5","N",1,"This mark definitely represents the Adverse Events domain"
"04-021","Clinical Site 04","04","21","M","White","Placebo","PLACEBO","Ongoing","2015-06-20","2015-09-01","74","Y","1","Enrollment","2015-06-20","1","2015-06-20","1","1",,0,"This mark definitely represents the Enrollment domain"
"04-021","Clinical Site 04","04","21","M","White","Placebo","PLACEBO","Ongoing","2015-06-20","2015-09-01","74","Y","1","Randomization","2015-08-20","62","2015-08-20","62","1",,0,"This mark definitely represents the Randomization domain"
"04-021","Clinical Site 04","04","21","M","White","Placebo","PLACEBO","Ongoing","2015-06-20","2015-09-01","74","Y","1","Study Completion","2016-06-22","369","2016-06-22","369","1",,0,"This mark definitely represents the Study Completion domain"
"04-022","Clinical Site 04","04","54","F","White","Placebo","PLACEBO","Ongoing","2015-12-26","2016-07-08","196","Y","1","Adverse Events","2016-11-20","331","2016-12-02","343","1","N",1,"This mark definitely represents the Adverse Events domain"
"04-022","Clinical Site 04","04","54","F","White","Placebo","PLACEBO","Ongoing","2015-12-26","2016-07-08","196","Y","1","Enrollment","2015-12-26","1","2015-12-26","1","1",,0,"This mark definitely represents the Enrollment domain"
"04-022","Clinical Site 04","04","54","F","White","Placebo","PLACEBO","Ongoing","2015-12-26","2016-07-08","196","Y","1","Randomization","2016-02-20","57","2016-02-20","57","1",,0,"This mark definitely represents the Randomization domain"
"04-022","Clinical Site 04","04","54","F","White","Placebo","PLACEBO","Ongoing","2015-12-26","2016-07-08","196","Y","1","Study Completion","2017-01-01","373","2017-01-01","373","1",,0,"This mark definitely represents the Study Completion domain"
"04-023","Clinical Site 04","04","21","M","Hispanic","Treatment A","TRTA","Early Termination","2015-10-04","2016-05-18","228","Y","1","Concomitant Medications","2016-02-24","144","2016-06-21","262","1","Y",2,"This mark definitely represents the Concomitant Medications domain"
