[
    {
        "relPath": "./data/clinical-trials/renderer-specific/adbds.csv",
        "path": "adbds.csv",
        "name": "adbds",
        "nRows": 13336,
        "cols": [
            "USUBJID",
            "SITE",
            "SITEID",
            "AGE",
            "SEX",
            "RACE",
            "ARM",
            "ARMCD",
            "SBJTSTAT",
            "RFSTDTC",
            "RFENDTC",
            "RFENDY",
            "SAFFL",
            "SAFFN",
            "VISIT",
            "VISITNUM",
            "DT",
            "DY",
            "CAT",
            "TEST",
            "STRESU",
            "STRESN",
            "STNRLO",
            "STNRHI",
            "VISITN"
        ],
        "nCols": 25
    },
    {
        "relPath": "./data/clinical-trials/renderer-specific/adtimelines.csv",
        "path": "adtimelines.csv",
        "name": "adtimelines",
        "nRows": 1084,
        "cols": [
            "USUBJID",
            "SITE",
            "SITEID",
            "AGE",
            "SEX",
            "RACE",
            "ARM",
            "ARMCD",
            "SBJTSTAT",
            "RFSTDTC",
            "RFENDTC",
            "RFENDY",
            "SAFFL",
            "SAFFN",
            "DOMAIN",
            "STDT",
            "STDY",
            "ENDT",
            "ENDY",
            "SEQ",
            "ONGO",
            "OFFSET",
            "TOOLTIP"
        ],
        "nCols": 23
    },
    {
        "relPath": "./data/clinical-trials/renderer-specific/leap_primary_outcome_determination.csv",
        "path": "leap_primary_outcome_determination.csv",
        "name": "leap_primary_outcome_determination",
        "nRows": 1836,
        "cols": [
            "Subject ID",
            "Stratum (char)",
            "Treatment Group (char)",
            "Outcome determination",
            "Outcome of OFC",
            "Cummulative or Incremental",
            "Mixed or Seperate",
            "Challenge Type",
            "Visit Number",
            "Peanut Rxn AE Start Date",
            "Peanut Rxn System Organ Class",
            "Peanut Rxn AE Reported Term",
            "Peanut Rxn AE Preferred Term",
            "Peanut Rxn AE Severity",
            "Serious AE Associated with Challenge?",
            "Peanut Rxn AE Severity (char)",
            "Confluent erythematout pruritic rash",
            "Respiratory Signs",
            "3 or more urticarial lesions",
            "1 or more sites of angioedema",
            "Hypotension",
            "Severe abdominal pain for 3+ minutes",
            "Vomitting",
            "Diarrhea",
            "Rubbing or nose or eyes for 3+ minutes",
            "Rhinorrhea that lasts for 3+ minutes",
            "Scratching that lasts for 3+ minutes",
            "Life Threatening Event",
            "Hospitalization",
            "Important Medical Event",
            "Prolonged Hospitalization",
            "Peanut IgE",
            "Study Flag",
            "Arah1 Result",
            "Arah3 Result",
            "Arah2 Result",
            "Total Peanut Amount No Symptoms",
            "Had a Positive Oral Food Challenge",
            "Dose of Reaction",
            "Peanut SPT Wheal"
        ],
        "nCols": 40
    }
]