"USUBJID","SITE","SITEID","AGE","SEX","RACE","ARM","ARMCD","SBJTSTAT","RFSTDTC","RFENDTC","RFENDY","SAFFL","SAFFN","ASEQ","ASTDT","ASTDY","AENDT","AENDY","CMTRT","PREFTERM","ATCTEXT2","CMONGO","CMDOSE","CMROUTE","CMINDC","CMSEQ"
"01-001","Clinical Site 01","01","30","F","Other/Mixed","Placebo","PLACEBO","Early Termination","2015-05-21","2015-05-26","6","Y","1","1","2015-07-16","57","2015-08-14","86","Restoril","temazepam","CENTRAL NERVOUS SYSTEM DRUGS","Y","2","sublingually","I'm not a doctor, I'm a data guru.","1"
"01-002","Clinical Site 01","01","24","F","Black","Treatment A","TRTA","Ongoing","2015-05-30","2015-11-09","164","Y","1",,,,,,,,,,,,,
"01-003","Clinical Site 01","01","43","F","Hispanic","Placebo","PLACEBO","Ongoing","2015-08-13","2016-02-23","195","Y","1","1","2015-12-03","113","2016-07-20","343","ANTARA","fenofibrate micronized","HEART AND CIRCULATORY DRUGS","Y","4","orally","I'm not a doctor, I'm a data guru.","1"
"01-003","Clinical Site 01","01","43","F","Hispanic","Placebo","PLACEBO","Ongoing","2015-08-13","2016-02-23","195","Y","1","2","2015-12-16","126","2016-05-07","269","Optipranolol","metipranolol soln","TOPICAL PRODUCTS","N","3","orally","I'm not a doctor, I'm a data guru.","2"
"01-003","Clinical Site 01","01","43","F","Hispanic","Placebo","PLACEBO","Ongoing","2015-08-13","2016-02-23","195","Y","1","3","2016-02-10","182","2016-07-16","339","LITHIUM CITRATE","lithium citrate","CENTRAL NERVOUS SYSTEM DRUGS","Y","1","orally","I'm not a doctor, I'm a data guru.","3"
"01-004","Clinical Site 01","01","42","F","Hispanic","Placebo","PLACEBO","Ongoing","2015-01-12","2015-04-26","105","Y","1","1","2015-07-03","173","2015-12-20","343","NORVIR","ritonavir","ANTI-INFECTIVE AGENTS","Y","3","orally","I'm not a doctor, I'm a data guru.","1"
"01-005","Clinical Site 01","01","51","M","White","Treatment B","TRTB","Ongoing","2015-11-11","2016-03-18","129","Y","1",,,,,,,,,,,,,
"01-006","Clinical Site 01","01","23","M","White","Screen Failure","SCRNFAIL","Screen Failure","2015-05-12","2015-05-12","1","N","0",,,,,,,,,,,,,
"01-007","Clinical Site 01","01","20","M","Other/Mixed","Screen Failure","SCRNFAIL","Screen Failure","2015-09-10","2015-09-10","1","N","0",,,,,,,,,,,,,
"01-008","Clinical Site 01","01","53","F","Black","Treatment B","TRTB","Ongoing","2015-11-21","2015-12-05","15","Y","1",,,,,,,,,,,,,
"01-009","Clinical Site 01","01","44","M","White","Treatment B","TRTB","Ongoing","2015-11-25","2016-05-07","165","Y","1","1","2016-02-13","81","2016-04-11","139","FEMARA","letrozole","CANCER DRUGS","Y","2","orally","I'm not a doctor, I'm a data guru.","1"
"01-009","Clinical Site 01","01","44","M","White","Treatment B","TRTB","Ongoing","2015-11-25","2016-05-07","165","Y","1","2","2016-02-27","95","2016-10-05","316","ECONAZOLE","econazole","TOPICAL PRODUCTS","Y","3","orally","I'm not a doctor, I'm a data guru.","2"
"01-009","Clinical Site 01","01","44","M","White","Treatment B","TRTB","Ongoing","2015-11-25","2016-05-07","165","Y","1","3","2016-07-01","220","2016-10-01","312","PEDIATRIC MULTIVITAMINS/FLUORIDE/IRON","pediatric multivitamins/fluoride/iron","SUPPLEMENTS","Y","1","subcutaneously","I'm not a doctor, I'm a data guru.","3"
"01-010","Clinical Site 01","01","35","F","Black","Treatment B","TRTB","Ongoing","2015-01-06","2015-05-04","119","Y","1",,,,,,,,,,,,,
"01-011","Clinical Site 01","01","33","F","Other/Mixed","Treatment A","TRTA","Ongoing","2015-10-04","2016-01-23","112","Y","1",,,,,,,,,,,,,
"01-012","Clinical Site 01","01","36","M","White","Placebo","PLACEBO","Ongoing","2015-04-18","2015-12-21","248","Y","1","1","2015-04-23","6","2015-05-05","18","ISONIAZID TABS","isoniazid tabs","ANTI-INFECTIVE AGENTS","N","2","orally","I'm not a doctor, I'm a data guru.","1"
"01-012","Clinical Site 01","01","36","M","White","Placebo","PLACEBO","Ongoing","2015-04-18","2015-12-21","248","Y","1","2","2015-07-14","88","2016-02-09","298","Ativan","lorazepam","CENTRAL NERVOUS SYSTEM DRUGS","N","1","orally","I'm not a doctor, I'm a data guru.","2"
"01-012","Clinical Site 01","01","36","M","White","Placebo","PLACEBO","Ongoing","2015-04-18","2015-12-21","248","Y","1","3","2016-02-16","305","2016-02-24","313","Coreg","carvedilol","HEART AND CIRCULATORY DRUGS","Y","1","sublingually","I'm not a doctor, I'm a data guru.","3"
"01-013","Clinical Site 01","01","40","F","White","Treatment A","TRTA","Ongoing","2015-07-15","2016-06-08","330","Y","1","1","2015-10-05","83","2015-12-19","158","MENEST","esterified estrogens","HORMONES, DIABETES AND RELATED DRUGS","N","2","orally","I'm not a doctor, I'm a data guru.","1"
"01-013","Clinical Site 01","01","40","F","White","Treatment A","TRTA","Ongoing","2015-07-15","2016-06-08","330","Y","1","2","2016-02-14","215","2016-05-20","311","RESTORIL 7.5 mg","temazepam","CENTRAL NERVOUS SYSTEM DRUGS","N","5","intravenously","I'm not a doctor, I'm a data guru.","2"
"01-013","Clinical Site 01","01","40","F","White","Treatment A","TRTA","Ongoing","2015-07-15","2016-06-08","330","Y","1","3","2016-03-17","247","2016-04-20","281","PHENYTEK","phenytoin sodium extended","NEUROMUSCULAR DRUGS","Y","1","orally","I'm not a doctor, I'm a data guru.","3"
"01-014","Clinical Site 01","01","37","M","Black","Treatment A","TRTA","Ongoing","2015-07-24","2016-02-14","206","Y","1","1","2015-10-06","75","2015-12-19","149","SPECTRACEF","cefditoren","ANTI-INFECTIVE AGENTS","N","3","orally","I'm not a doctor, I'm a data guru.","1"
"01-014","Clinical Site 01","01","37","M","Black","Treatment A","TRTA","Ongoing","2015-07-24","2016-02-14","206","Y","1","2","2015-12-20","150","2016-04-01","253","Modicon","norethindrone/ethinyl estradiol","HORMONES, DIABETES AND RELATED DRUGS","Y","1","subcutaneously","I'm not a doctor, I'm a data guru.","2"
"01-014","Clinical Site 01","01","37","M","Black","Treatment A","TRTA","Ongoing","2015-07-24","2016-02-14","206","Y","1","3","2016-02-22","214","2016-02-25","217","Proamatine","midodrine","HEART AND CIRCULATORY DRUGS","N","4","intravenously","I'm not a doctor, I'm a data guru.","3"
"01-014","Clinical Site 01","01","37","M","Black","Treatment A","TRTA","Ongoing","2015-07-24","2016-02-14","206","Y","1","4","2016-03-16","237","2016-05-20","302","Betagan","levobunolol soln","TOPICAL PRODUCTS","Y","2","orally","I'm not a doctor, I'm a data guru.","4"
"01-015","Clinical Site 01","01","26","M","Hispanic","Treatment B","TRTB","Ongoing","2015-04-28","2015-11-07","194","Y","1","1","2015-06-27","61","2015-09-08","134","Keflex","cephalexin","ANTI-INFECTIVE AGENTS","Y","5","orally","I'm not a doctor, I'm a data guru.","1"
"01-015","Clinical Site 01","01","26","M","Hispanic","Treatment B","TRTB","Ongoing","2015-04-28","2015-11-07","194","Y","1","2","2015-12-23","240","2016-02-04","283","NILANDRON","nilutamide","CANCER DRUGS","N","5","orally","I'm not a doctor, I'm a data guru.","2"
"01-015","Clinical Site 01","01","26","M","Hispanic","Treatment B","TRTB","Ongoing","2015-04-28","2015-11-07","194","Y","1","3","2015-12-27","244","2016-03-22","330","Valium","diazepam","CENTRAL NERVOUS SYSTEM DRUGS","Y","4","topically","I'm not a doctor, I'm a data guru.","3"
"01-015","Clinical Site 01","01","26","M","Hispanic","Treatment B","TRTB","Ongoing","2015-04-28","2015-11-07","194","Y","1","4","2016-03-27","335","2016-03-29","337","Trileptal","oxcarbazepine tabs","NEUROMUSCULAR DRUGS","N","3","orally","I'm not a doctor, I'm a data guru.","4"
"01-016","Clinical Site 01","01","18","M","Black","Treatment A","TRTA","Ongoing","2015-12-21","2016-09-06","261","Y","1",,,,,,,,,,,,,
"01-017","Clinical Site 01","01","40","M","Hispanic","Treatment A","TRTA","Ongoing","2015-02-12","2015-08-05","175","Y","1","1","2015-05-12","90","2015-09-11","212","LITHIUM CITRATE","lithium citrate","CENTRAL NERVOUS SYSTEM DRUGS","Y","1","orally","I'm not a doctor, I'm a data guru.","1"
"01-017","Clinical Site 01","01","40","M","Hispanic","Treatment A","TRTA","Ongoing","2015-02-12","2015-08-05","175","Y","1","2","2015-10-31","262","2015-11-04","266","EPIVIR-HBV","lamivudine","ANTI-INFECTIVE AGENTS","Y","5","topically","I'm not a doctor, I'm a data guru.","2"
"01-018","Clinical Site 01","01","29","F","Hispanic","Treatment B","TRTB","Ongoing","2015-02-13","2015-07-01","139","Y","1",,,,,,,,,,,,,
"01-019","Clinical Site 01","01","47","M","Other/Mixed","Treatment B","TRTB","Ongoing","2015-04-24","2016-01-31","283","Y","1","1","2015-05-26","33","2015-08-08","107","SINGuLAIR","montelukast","RESPIRATORY AGENTS","N","1","topically","I'm not a doctor, I'm a data guru.","1"
"01-019","Clinical Site 01","01","47","M","Other/Mixed","Treatment B","TRTB","Ongoing","2015-04-24","2016-01-31","283","Y","1","2","2015-09-27","157","2016-02-04","287","Sandimmune","cyclosporine","MISCELLANEOUS CATEGORIES","N","5","orally","I'm not a doctor, I'm a data guru.","2"
"01-019","Clinical Site 01","01","47","M","Other/Mixed","Treatment B","TRTB","Ongoing","2015-04-24","2016-01-31","283","Y","1","3","2015-10-06","166","2015-11-15","206","Mysoline","primidone","NEUROMUSCULAR DRUGS","N","1","intravenously","I'm not a doctor, I'm a data guru.","3"
"01-019","Clinical Site 01","01","47","M","Other/Mixed","Treatment B","TRTB","Ongoing","2015-04-24","2016-01-31","283","Y","1","4","2015-12-03","224","2016-01-11","263","Ciloxan","ciprofloxacin soln","TOPICAL PRODUCTS","Y","4","orally","I'm not a doctor, I'm a data guru.","4"
"01-020","Clinical Site 01","01","27","M","Hispanic","Screen Failure","SCRNFAIL","Screen Failure","2015-06-17","2015-06-17","1","N","0",,,,,,,,,,,,,
"01-021","Clinical Site 01","01","23","F","Black","Treatment A","TRTA","Ongoing","2015-10-04","2015-11-15","43","Y","1",,,,,,,,,,,,,
"01-022","Clinical Site 01","01","27","F","Black","Treatment A","TRTA","Completed","2015-10-01","2016-09-20","356","Y","1","1","2015-10-14","14","2016-05-24","237","Dilaudid","hydromorphone tabs","PAIN RELIEF DRUGS","Y","4","orally","I'm not a doctor, I'm a data guru.","1"
"01-022","Clinical Site 01","01","27","F","Black","Treatment A","TRTA","Completed","2015-10-01","2016-09-20","356","Y","1","2","2016-01-18","110","2016-04-07","190","INDAPAMIDE","indapamide","HEART AND CIRCULATORY DRUGS","N","2","orally","I'm not a doctor, I'm a data guru.","2"
"01-022","Clinical Site 01","01","27","F","Black","Treatment A","TRTA","Completed","2015-10-01","2016-09-20","356","Y","1","3","2016-03-13","165","2016-06-06","250","ERYTHROMYCIN ETHYLSUCCINATE","erythromycin ethylsuccinate","ANTI-INFECTIVE AGENTS","N","1","orally","I'm not a doctor, I'm a data guru.","3"
"01-023","Clinical Site 01","01","48","M","Black","Treatment A","TRTA","Ongoing","2015-03-29","2015-09-03","159","Y","1","1","2015-05-19","52","2015-10-29","215","Nasarel","flunisolide","RESPIRATORY AGENTS","N","5","orally","I'm not a doctor, I'm a data guru.","1"
"01-024","Clinical Site 01","01","24","F","Other/Mixed","Treatment B","TRTB","Ongoing","2015-04-23","2015-10-28","189","Y","1","1","2015-07-20","89","2016-02-19","303","Fiorinal w/Codeine","butalbital/aspirin/caffeine/codeine caps","PAIN RELIEF DRUGS","N","3","orally","I'm not a doctor, I'm a data guru.","1"
"01-025","Clinical Site 01","01","21","M","White","Placebo","PLACEBO","Ongoing","2015-06-22","2015-09-25","96","Y","1","1","2016-01-15","208","2016-04-28","312","Ogen","estropipate","HORMONES, DIABETES AND RELATED DRUGS","Y","1","orally","I'm not a doctor, I'm a data guru.","1"
"01-026","Clinical Site 01","01","25","F","White","Treatment A","TRTA","Completed","2015-02-19","2016-02-28","375","Y","1","1","2016-01-05","321","2016-01-18","334","Effexor","venlafaxine","CENTRAL NERVOUS SYSTEM DRUGS","N","4","orally","I'm not a doctor, I'm a data guru.","1"
"01-027","Clinical Site 01","01","40","F","Other/Mixed","Treatment B","TRTB","Ongoing","2015-06-01","2015-10-24","146","Y","1","1","2015-06-04","4","2016-03-25","299","ZITHROMAx packets, 1 g","azithromycin","ANTI-INFECTIVE AGENTS","Y","4","orally","I'm not a doctor, I'm a data guru.","1"
"01-027","Clinical Site 01","01","40","F","Other/Mixed","Treatment B","TRTB","Ongoing","2015-06-01","2015-10-24","146","Y","1","2","2016-01-24","238","2016-05-30","365","Klonopin","clonazepam","NEUROMUSCULAR DRUGS","N","4","intravenously","I'm not a doctor, I'm a data guru.","2"
"01-027","Clinical Site 01","01","40","F","Other/Mixed","Treatment B","TRTB","Ongoing","2015-06-01","2015-10-24","146","Y","1","3","2016-02-23","268","2016-05-02","337","Augmentin","amoxicillin/potassium clavulanate","ANTI-INFECTIVE AGENTS","N","4","intravenously","I'm not a doctor, I'm a data guru.","3"
"01-027","Clinical Site 01","01","40","F","Other/Mixed","Treatment B","TRTB","Ongoing","2015-06-01","2015-10-24","146","Y","1","4","2016-03-27","301","2016-05-27","362","Questran, Questran Light","cholestyramine","HEART AND CIRCULATORY DRUGS","N","4","sublingually","I'm not a doctor, I'm a data guru.","4"
"01-028","Clinical Site 01","01","21","F","Hispanic","Treatment B","TRTB","Completed","2015-11-12","2016-11-04","359","Y","1","1","2016-11-02","357","2016-11-10","365","AVANDARYL","rosiglitazone/glimepiride","HORMONES, DIABETES AND RELATED DRUGS","Y","3","orally","I'm not a doctor, I'm a data guru.","1"
"01-029","Clinical Site 01","01","50","M","Black","Placebo","PLACEBO","Ongoing","2015-06-10","2016-05-23","349","Y","1","1","2015-06-25","16","2016-02-24","260","Westcort","hydrocortisone valerate","TOPICAL PRODUCTS","N","3","sublingually","I'm not a doctor, I'm a data guru.","1"
"01-029","Clinical Site 01","01","50","M","Black","Placebo","PLACEBO","Ongoing","2015-06-10","2016-05-23","349","Y","1","2","2015-11-30","174","2015-12-08","182","Isopto Carpine","pilocarpine soln","TOPICAL PRODUCTS","Y","3","sublingually","I'm not a doctor, I'm a data guru.","2"
"01-029","Clinical Site 01","01","50","M","Black","Placebo","PLACEBO","Ongoing","2015-06-10","2016-05-23","349","Y","1","3","2016-03-16","281","2016-05-22","348","Depakene","valproic acid","NEUROMUSCULAR DRUGS","Y","2","orally","I'm not a doctor, I'm a data guru.","3"
"01-029","Clinical Site 01","01","50","M","Black","Placebo","PLACEBO","Ongoing","2015-06-10","2016-05-23","349","Y","1","4","2016-04-05","301","2016-05-03","329","Biaxin","clarithromycin","ANTI-INFECTIVE AGENTS","N","1","topically","I'm not a doctor, I'm a data guru.","4"
"01-030","Clinical Site 01","01","25","M","Other/Mixed","Screen Failure","SCRNFAIL","Screen Failure","2015-01-18","2015-01-18","1","N","0",,,,,,,,,,,,,
"02-001","Clinical Site 02","02","20","M","White","Screen Failure","SCRNFAIL","Screen Failure","2015-12-11","2015-12-11","1","N","0",,,,,,,,,,,,,
"02-002","Clinical Site 02","02","42","F","White","Treatment B","TRTB","Ongoing","2015-03-16","2015-07-18","125","Y","1","1","2015-07-26","133","2015-07-28","135","DOXEPIN","doxepin","CENTRAL NERVOUS SYSTEM DRUGS","Y","1","topically","I'm not a doctor, I'm a data guru.","1"
"02-002","Clinical Site 02","02","42","F","White","Treatment B","TRTB","Ongoing","2015-03-16","2015-07-18","125","Y","1","2","2015-09-22","191","2015-10-04","203","LAMICTAL Starter Kit","lamotrigine","NEUROMUSCULAR DRUGS","N","3","orally","I'm not a doctor, I'm a data guru.","2"
"02-002","Clinical Site 02","02","42","F","White","Treatment B","TRTB","Ongoing","2015-03-16","2015-07-18","125","Y","1","3","2016-03-06","357","2016-03-09","360","Calan","verapamil","HEART AND CIRCULATORY DRUGS","Y","5","orally","I'm not a doctor, I'm a data guru.","3"
"02-002","Clinical Site 02","02","42","F","White","Treatment B","TRTB","Ongoing","2015-03-16","2015-07-18","125","Y","1","4","2016-03-07","358","2016-03-07","358","Ciloxan","ciprofloxacin soln","TOPICAL PRODUCTS","Y","2","orally","I'm not a doctor, I'm a data guru.","4"
"02-003","Clinical Site 02","02","27","F","Hispanic","Placebo","PLACEBO","Ongoing","2015-04-27","2015-12-14","232","Y","1","1","2015-05-06","10","2015-08-04","100","ABILIFY","aripiprazole","CENTRAL NERVOUS SYSTEM DRUGS","N","5","orally","I'm not a doctor, I'm a data guru.","1"
"02-003","Clinical Site 02","02","27","F","Hispanic","Placebo","PLACEBO","Ongoing","2015-04-27","2015-12-14","232","Y","1","2","2015-05-19","23","2015-06-13","48","Norpramin","desipramine","CENTRAL NERVOUS SYSTEM DRUGS","N","3","orally","I'm not a doctor, I'm a data guru.","2"
"02-003","Clinical Site 02","02","27","F","Hispanic","Placebo","PLACEBO","Ongoing","2015-04-27","2015-12-14","232","Y","1","3","2015-09-10","137","2015-10-02","159","Prelone","prednisolone syrup","HORMONES, DIABETES AND RELATED DRUGS","N","1","orally","I'm not a doctor, I'm a data guru.","3"
"02-003","Clinical Site 02","02","27","F","Hispanic","Placebo","PLACEBO","Ongoing","2015-04-27","2015-12-14","232","Y","1","4","2016-01-06","255","2016-04-05","345","HALOPERIDOL LACTATE ORAL SOLN","haloperidol lactate oral soln","CENTRAL NERVOUS SYSTEM DRUGS","N","4","orally","I'm not a doctor, I'm a data guru.","4"
"02-004","Clinical Site 02","02","21","F","White","Placebo","PLACEBO","Ongoing","2015-09-30","2015-10-21","22","Y","1","1","2015-11-21","53","2016-03-13","166","Lamictal","lamotrigine","NEUROMUSCULAR DRUGS","N","5","sublingually","I'm not a doctor, I'm a data guru.","1"
"02-004","Clinical Site 02","02","21","F","White","Placebo","PLACEBO","Ongoing","2015-09-30","2015-10-21","22","Y","1","2","2016-01-21","114","2016-08-23","329","Elocon","mometasone","TOPICAL PRODUCTS","N","2","orally","I'm not a doctor, I'm a data guru.","2"
"02-005","Clinical Site 02","02","18","M","Hispanic","Treatment B","TRTB","Early Termination","2015-12-13","2016-07-21","222","Y","1",,,,,,,,,,,,,
"02-006","Clinical Site 02","02","36","M","White","Placebo","PLACEBO","Early Termination","2015-06-03","2015-09-18","108","Y","1","1","2016-04-13","316","2016-04-30","333","Mircette","desogestrel/ethinyl estradiol","HORMONES, DIABETES AND RELATED DRUGS","Y","5","orally","I'm not a doctor, I'm a data guru.","1"
"02-006","Clinical Site 02","02","36","M","White","Placebo","PLACEBO","Early Termination","2015-06-03","2015-09-18","108","Y","1","2","2016-05-18","351","2016-05-30","363","LuNESTA","eszopiclone","CENTRAL NERVOUS SYSTEM DRUGS","N","5","orally","I'm not a doctor, I'm a data guru.","2"
"02-007","Clinical Site 02","02","31","M","Hispanic","Screen Failure","SCRNFAIL","Screen Failure","2015-09-01","2015-09-01","1","N","0",,,,,,,,,,,,,
"02-008","Clinical Site 02","02","21","F","Other/Mixed","Treatment B","TRTB","Completed","2015-08-17","2016-08-23","373","Y","1","1","2015-08-18","2","2015-09-30","45","Augmentin","amoxicillin/potassium clavulanate","ANTI-INFECTIVE AGENTS","N","1","orally","I'm not a doctor, I'm a data guru.","1"
"02-008","Clinical Site 02","02","21","F","Other/Mixed","Treatment B","TRTB","Completed","2015-08-17","2016-08-23","373","Y","1","2","2015-11-19","95","2016-04-02","230","Dilantin","phenytoin sodium extended","NEUROMUSCULAR DRUGS","Y","2","subcutaneously","I'm not a doctor, I'm a data guru.","2"
"02-008","Clinical Site 02","02","21","F","Other/Mixed","Treatment B","TRTB","Completed","2015-08-17","2016-08-23","373","Y","1","3","2016-01-16","153","2016-05-27","285","Glucotrol","glipizide","HORMONES, DIABETES AND RELATED DRUGS","Y","1","orally","I'm not a doctor, I'm a data guru.","3"
"02-009","Clinical Site 02","02","27","F","Black","Treatment B","TRTB","Ongoing","2015-12-13","2016-07-30","231","Y","1","1","2016-04-10","120","2016-06-16","187","DIBENZYLINE","phenoxybenzamine","HEART AND CIRCULATORY DRUGS","N","4","orally","I'm not a doctor, I'm a data guru.","1"
"02-009","Clinical Site 02","02","27","F","Black","Treatment B","TRTB","Ongoing","2015-12-13","2016-07-30","231","Y","1","2","2016-06-21","192","2016-10-05","298","Ortho Tri-Cyclen","norgestimate/ethinyl estradiol","HORMONES, DIABETES AND RELATED DRUGS","N","1","orally","I'm not a doctor, I'm a data guru.","2"
"02-010","Clinical Site 02","02","36","F","White","Treatment B","TRTB","Completed","2015-07-26","2016-07-18","359","Y","1","1","2015-08-29","35","2015-09-16","53","PHENYTEK","phenytoin sodium extended","NEUROMUSCULAR DRUGS","Y","5","intravenously","I'm not a doctor, I'm a data guru.","1"
"02-010","Clinical Site 02","02","36","F","White","Treatment B","TRTB","Completed","2015-07-26","2016-07-18","359","Y","1","2","2015-12-31","159","2016-02-06","196","ORTHO TRI-CYCLEN LO","norgestimate/ethinyl estradiol","HORMONES, DIABETES AND RELATED DRUGS","N","1","orally","I'm not a doctor, I'm a data guru.","2"
"02-010","Clinical Site 02","02","36","F","White","Treatment B","TRTB","Completed","2015-07-26","2016-07-18","359","Y","1","3","2016-03-27","246","2016-07-22","363","TRExALL","methotrexate","CANCER DRUGS","N","4","topically","I'm not a doctor, I'm a data guru.","3"
"02-010","Clinical Site 02","02","36","F","White","Treatment B","TRTB","Completed","2015-07-26","2016-07-18","359","Y","1","4","2016-04-30","280","2016-05-26","306","HuMuLIN R","insulin regular","HORMONES, DIABETES AND RELATED DRUGS","Y","3","orally","I'm not a doctor, I'm a data guru.","4"
"02-011","Clinical Site 02","02","40","F","Other/Mixed","Treatment A","TRTA","Ongoing","2015-10-08","2015-10-13","6","Y","1",,,,,,,,,,,,,
"02-012","Clinical Site 02","02","37","F","Other/Mixed","Treatment B","TRTB","Ongoing","2015-09-30","2016-07-25","300","Y","1","1","2016-03-24","177","2016-07-08","283","Glucotrol","glipizide","HORMONES, DIABETES AND RELATED DRUGS","Y","2","sublingually","I'm not a doctor, I'm a data guru.","1"
"02-012","Clinical Site 02","02","37","F","Other/Mixed","Treatment B","TRTB","Ongoing","2015-09-30","2016-07-25","300","Y","1","2","2016-04-04","188","2016-04-05","189","DuETACT","pioglitazone/glimepiride","HORMONES, DIABETES AND RELATED DRUGS","Y","1","orally","I'm not a doctor, I'm a data guru.","2"
"02-012","Clinical Site 02","02","37","F","Other/Mixed","Treatment B","TRTB","Ongoing","2015-09-30","2016-07-25","300","Y","1","3","2016-04-30","214","2016-09-26","363","LINDANE LOTN","lindane lotn","TOPICAL PRODUCTS","Y","2","orally","I'm not a doctor, I'm a data guru.","3"
"02-013","Clinical Site 02","02","32","M","White","Treatment B","TRTB","Completed","2015-12-29","2016-12-20","358","Y","1","1","2016-03-23","86","2016-12-06","344","Olux","clobetasol","TOPICAL PRODUCTS","Y","1","orally","I'm not a doctor, I'm a data guru.","1"
"02-013","Clinical Site 02","02","32","M","White","Treatment B","TRTB","Completed","2015-12-29","2016-12-20","358","Y","1","2","2016-03-28","91","2016-10-26","303","TABLOID","thioguanine","CANCER DRUGS","N","1","orally","I'm not a doctor, I'm a data guru.","2"
"02-013","Clinical Site 02","02","32","M","White","Treatment B","TRTB","Completed","2015-12-29","2016-12-20","358","Y","1","3","2016-08-10","226","2016-09-07","254","NOVOLOG","insulin aspart","HORMONES, DIABETES AND RELATED DRUGS","N","2","orally","I'm not a doctor, I'm a data guru.","3"
"02-013","Clinical Site 02","02","32","M","White","Treatment B","TRTB","Completed","2015-12-29","2016-12-20","358","Y","1","4","2016-12-19","357","2016-12-27","365","NOVOLOG MIx 70/30","insulin aspart protamine/aspart","HORMONES, DIABETES AND RELATED DRUGS","Y","2","orally","I'm not a doctor, I'm a data guru.","4"
"02-013","Clinical Site 02","02","32","M","White","Treatment B","TRTB","Completed","2015-12-29","2016-12-20","358","Y","1","5","2016-12-22","360","2016-12-24","362","Salagen","pilocarpine tabs","TOPICAL PRODUCTS","N","3","orally","I'm not a doctor, I'm a data guru.","5"
"02-014","Clinical Site 02","02","19","F","Other/Mixed","Treatment A","TRTA","Ongoing","2015-04-13","2015-09-19","160","Y","1",,,,,,,,,,,,,
"02-015","Clinical Site 02","02","29","M","White","Placebo","PLACEBO","Ongoing","2015-02-24","2015-05-14","80","Y","1","1","2015-05-06","72","2015-11-22","272","Depakene","valproic acid","NEUROMUSCULAR DRUGS","Y","4","subcutaneously","I'm not a doctor, I'm a data guru.","1"
"02-015","Clinical Site 02","02","29","M","White","Placebo","PLACEBO","Ongoing","2015-02-24","2015-05-14","80","Y","1","2","2015-05-25","91","2016-02-15","357","DIBENZYLINE","phenoxybenzamine","HEART AND CIRCULATORY DRUGS","N","5","orally","I'm not a doctor, I'm a data guru.","2"
"02-015","Clinical Site 02","02","29","M","White","Placebo","PLACEBO","Ongoing","2015-02-24","2015-05-14","80","Y","1","3","2015-06-01","98","2015-09-06","195","Amaryl","glimepiride","HORMONES, DIABETES AND RELATED DRUGS","N","3","intravenously","I'm not a doctor, I'm a data guru.","3"
"02-015","Clinical Site 02","02","29","M","White","Placebo","PLACEBO","Ongoing","2015-02-24","2015-05-14","80","Y","1","4","2015-12-01","281","2016-01-30","341","ultram","tramadol","PAIN RELIEF DRUGS","N","5","topically","I'm not a doctor, I'm a data guru.","4"
"02-016","Clinical Site 02","02","25","M","Hispanic","Screen Failure","SCRNFAIL","Screen Failure","2015-10-24","2015-10-24","1","N","0",,,,,,,,,,,,,
"02-017","Clinical Site 02","02","33","M","White","Placebo","PLACEBO","Completed","2015-04-06","2016-03-27","357","Y","1","1","2015-10-21","199","2016-02-09","310","Vantin","cefpodoxime","ANTI-INFECTIVE AGENTS","Y","2","intravenously","I'm not a doctor, I'm a data guru.","1"
"02-017","Clinical Site 02","02","33","M","White","Placebo","PLACEBO","Completed","2015-04-06","2016-03-27","357","Y","1","2","2016-03-06","336","2016-03-07","337","Monopril","fosinopril","HEART AND CIRCULATORY DRUGS","Y","1","orally","I'm not a doctor, I'm a data guru.","2"
"02-018","Clinical Site 02","02","19","F","White","Placebo","PLACEBO","Completed","2015-11-23","2016-11-21","365","Y","1","1","2015-12-12","20","2016-04-08","138","Valium","diazepam","CENTRAL NERVOUS SYSTEM DRUGS","Y","5","intravenously","I'm not a doctor, I'm a data guru.","1"
"02-019","Clinical Site 02","02","49","F","Black","Placebo","PLACEBO","Ongoing","2015-02-16","2015-09-27","224","Y","1","1","2015-02-24","9","2015-07-23","158","APTIVuS","tipranavir","ANTI-INFECTIVE AGENTS","N","2","subcutaneously","I'm not a doctor, I'm a data guru.","1"
"02-019","Clinical Site 02","02","49","F","Black","Placebo","PLACEBO","Ongoing","2015-02-16","2015-09-27","224","Y","1","2","2015-05-01","75","2016-01-02","321","METHAZOLAMIDE","methazolamide","HEART AND CIRCULATORY DRUGS","Y","4","orally","I'm not a doctor, I'm a data guru.","2"
"02-019","Clinical Site 02","02","49","F","Black","Placebo","PLACEBO","Ongoing","2015-02-16","2015-09-27","224","Y","1","3","2015-09-06","203","2015-10-09","236","Ocuflox","ofloxacin soln","TOPICAL PRODUCTS","Y","3","orally","I'm not a doctor, I'm a data guru.","3"
"02-020","Clinical Site 02","02","23","F","White","Treatment A","TRTA","Early Termination","2015-07-14","2016-06-18","341","Y","1","1","2016-03-26","257","2016-03-31","262","Ortho-Novum 1/50","norethindrone/mestranol","HORMONES, DIABETES AND RELATED DRUGS","Y","3","sublingually","I'm not a doctor, I'm a data guru.","1"
"02-020","Clinical Site 02","02","23","F","White","Treatment A","TRTA","Early Termination","2015-07-14","2016-06-18","341","Y","1","2","2016-05-29","321","2016-07-01","354","VIRACEPT","nelfinavir","ANTI-INFECTIVE AGENTS","Y","1","subcutaneously","I'm not a doctor, I'm a data guru.","2"
"02-021","Clinical Site 02","02","53","F","Black","Treatment B","TRTB","Ongoing","2015-10-01","2016-09-03","339","Y","1","1","2016-03-09","161","2016-08-08","313","Zonegran","zonisamide","NEUROMUSCULAR DRUGS","Y","1","orally","I'm not a doctor, I'm a data guru.","1"
"02-021","Clinical Site 02","02","53","F","Black","Treatment B","TRTB","Ongoing","2015-10-01","2016-09-03","339","Y","1","2","2016-03-30","182","2016-09-27","363","Effexor","venlafaxine","CENTRAL NERVOUS SYSTEM DRUGS","Y","5","sublingually","I'm not a doctor, I'm a data guru.","2"
"02-021","Clinical Site 02","02","53","F","Black","Treatment B","TRTB","Ongoing","2015-10-01","2016-09-03","339","Y","1","3","2016-09-14","350","2016-09-22","358","Aralen","chloroquine phosphate","ANTI-INFECTIVE AGENTS","N","1","orally","I'm not a doctor, I'm a data guru.","3"
"02-022","Clinical Site 02","02","30","M","White","Treatment B","TRTB","Ongoing","2015-12-27","2016-03-02","67","Y","1","1","2016-02-24","60","2016-09-04","253","Alesse","levonorgestrel/ethinyl estradiol","HORMONES, DIABETES AND RELATED DRUGS","Y","5","orally","I'm not a doctor, I'm a data guru.","1"
"02-022","Clinical Site 02","02","30","M","White","Treatment B","TRTB","Ongoing","2015-12-27","2016-03-02","67","Y","1","2","2016-05-18","144","2016-10-27","306","VIREAD","tenofovir","ANTI-INFECTIVE AGENTS","Y","2","intravenously","I'm not a doctor, I'm a data guru.","2"
"02-022","Clinical Site 02","02","30","M","White","Treatment B","TRTB","Ongoing","2015-12-27","2016-03-02","67","Y","1","3","2016-08-21","239","2016-08-21","239","Atrovent","ipratropium","RESPIRATORY AGENTS","N","5","subcutaneously","I'm not a doctor, I'm a data guru.","3"
"02-022","Clinical Site 02","02","30","M","White","Treatment B","TRTB","Ongoing","2015-12-27","2016-03-02","67","Y","1","4","2016-09-23","272","2016-10-27","306","ALDARA","imiquimod","TOPICAL PRODUCTS","N","2","sublingually","I'm not a doctor, I'm a data guru.","4"
"02-022","Clinical Site 02","02","30","M","White","Treatment B","TRTB","Ongoing","2015-12-27","2016-03-02","67","Y","1","5","2016-12-19","359","2016-12-19","359","Myambutol","ethambutol","ANTI-INFECTIVE AGENTS","N","3","orally","I'm not a doctor, I'm a data guru.","5"
"02-023","Clinical Site 02","02","45","F","Black","Treatment A","TRTA","Completed","2015-12-06","2016-12-09","370","Y","1","1","2016-08-28","267","2016-09-25","295","AZOR","amlodipine/olmesartan","HEART AND CIRCULATORY DRUGS","N","5","orally","I'm not a doctor, I'm a data guru.","1"
"02-024","Clinical Site 02","02","45","M","White","Treatment A","TRTA","Ongoing","2015-02-28","2015-07-20","143","Y","1","1","2015-08-03","157","2015-12-06","282","Benzamycin","erythromycin/benzoyl peroxide","TOPICAL PRODUCTS","N","5","intravenously","I'm not a doctor, I'm a data guru.","1"
"02-025","Clinical Site 02","02","36","F","Black","Screen Failure","SCRNFAIL","Screen Failure","2015-08-04","2015-08-04","1","N","0",,,,,,,,,,,,,
"02-026","Clinical Site 02","02","27","F","Black","Placebo","PLACEBO","Completed","2015-04-03","2016-04-05","369","Y","1","1","2015-04-23","21","2015-08-15","135","Rocaltrol","calcitriol","SUPPLEMENTS","Y","4","subcutaneously","I'm not a doctor, I'm a data guru.","1"
"02-026","Clinical Site 02","02","27","F","Black","Placebo","PLACEBO","Completed","2015-04-03","2016-04-05","369","Y","1","2","2015-04-26","24","2016-03-16","349","ACID JELLY","acetic acid","GENITOURINARY DRUGS","Y","2","orally","I'm not a doctor, I'm a data guru.","2"
"02-026","Clinical Site 02","02","27","F","Black","Placebo","PLACEBO","Completed","2015-04-03","2016-04-05","369","Y","1","3","2015-06-20","79","2015-07-02","91","ACTIVELLA","estradiol/norethindrone acetate","HORMONES, DIABETES AND RELATED DRUGS","N","1","orally","I'm not a doctor, I'm a data guru.","3"
"02-026","Clinical Site 02","02","27","F","Black","Placebo","PLACEBO","Completed","2015-04-03","2016-04-05","369","Y","1","4","2015-09-19","170","2015-11-21","233","INDOMETHACIN","indomethacin","PAIN RELIEF DRUGS","Y","1","orally","I'm not a doctor, I'm a data guru.","4"
"02-027","Clinical Site 02","02","36","F","Hispanic","Treatment B","TRTB","Completed","2015-03-08","2016-03-02","361","Y","1","1","2015-05-23","77","2015-08-30","176","Vasotec","enalapril","HEART AND CIRCULATORY DRUGS","N","4","topically","I'm not a doctor, I'm a data guru.","1"
"02-027","Clinical Site 02","02","36","F","Hispanic","Treatment B","TRTB","Completed","2015-03-08","2016-03-02","361","Y","1","2","2015-09-03","180","2015-11-05","243","DIASTAT","diazepam","NEUROMUSCULAR DRUGS","Y","4","orally","I'm not a doctor, I'm a data guru.","2"
"02-027","Clinical Site 02","02","36","F","Hispanic","Treatment B","TRTB","Completed","2015-03-08","2016-03-02","361","Y","1","3","2015-12-16","284","2016-03-02","361","Seasonale","levonorgestrel/ethinyl estradiol","HORMONES, DIABETES AND RELATED DRUGS","Y","1","sublingually","I'm not a doctor, I'm a data guru.","3"
"02-027","Clinical Site 02","02","36","F","Hispanic","Treatment B","TRTB","Completed","2015-03-08","2016-03-02","361","Y","1","4","2015-12-27","295","2016-02-21","351","VIRACEPT","nelfinavir","ANTI-INFECTIVE AGENTS","Y","3","orally","I'm not a doctor, I'm a data guru.","4"
"02-028","Clinical Site 02","02","29","M","Hispanic","Placebo","PLACEBO","Ongoing","2015-04-25","2015-12-12","232","Y","1",,,,,,,,,,,,,
"02-029","Clinical Site 02","02","47","M","Black","Placebo","PLACEBO","Ongoing","2015-04-26","2016-04-15","356","Y","1","1","2015-04-28","3","2015-10-20","178","OSMOPREP","sodium phosphates","GASTROINTESTINAL DRUGS","N","1","sublingually","I'm not a doctor, I'm a data guru.","1"
"02-029","Clinical Site 02","02","47","M","Black","Placebo","PLACEBO","Ongoing","2015-04-26","2016-04-15","356","Y","1","2","2015-06-30","66","2015-07-22","88","OPTIVAR","azelastine","TOPICAL PRODUCTS","Y","3","orally","I'm not a doctor, I'm a data guru.","2"
"02-029","Clinical Site 02","02","47","M","Black","Placebo","PLACEBO","Ongoing","2015-04-26","2016-04-15","356","Y","1","3","2015-10-14","172","2016-03-25","335","Lopid","gemfibrozil","HEART AND CIRCULATORY DRUGS","Y","3","sublingually","I'm not a doctor, I'm a data guru.","3"
"02-029","Clinical Site 02","02","47","M","Black","Placebo","PLACEBO","Ongoing","2015-04-26","2016-04-15","356","Y","1","4","2016-03-30","340","2016-04-15","356","CRIxIVAN","indinavir","ANTI-INFECTIVE AGENTS","Y","2","sublingually","I'm not a doctor, I'm a data guru.","4"
"02-029","Clinical Site 02","02","47","M","Black","Placebo","PLACEBO","Ongoing","2015-04-26","2016-04-15","356","Y","1","5","2016-04-20","361","2016-04-23","364","Prinivil","lisinopril","HEART AND CIRCULATORY DRUGS","N","5","sublingually","I'm not a doctor, I'm a data guru.","5"
"02-030","Clinical Site 02","02","41","M","Hispanic","Screen Failure","SCRNFAIL","Screen Failure","2015-12-11","2015-12-11","1","N","0",,,,,,,,,,,,,
"03-001","Clinical Site 03","03","43","F","Hispanic","Treatment A","TRTA","Early Termination","2015-04-24","2015-05-15","22","Y","1","1","2016-02-01","284","2016-02-19","302","ACETAZOLAMIDE","acetazolamide","HEART AND CIRCULATORY DRUGS","N","1","orally","I'm not a doctor, I'm a data guru.","1"
"03-001","Clinical Site 03","03","43","F","Hispanic","Treatment A","TRTA","Early Termination","2015-04-24","2015-05-15","22","Y","1","2","2016-03-21","333","2016-04-16","359","Bicitra","sodium citrate/citric acid","GENITOURINARY DRUGS","N","5","orally","I'm not a doctor, I'm a data guru.","2"
"03-002","Clinical Site 03","03","27","F","White","Treatment A","TRTA","Completed","2015-09-02","2016-08-30","364","Y","1",,,,,,,,,,,,,
"03-003","Clinical Site 03","03","42","M","Black","Treatment B","TRTB","Ongoing","2015-05-26","2016-03-10","290","Y","1","1","2016-05-24","365","2016-05-24","365","ASPIRIN/CODEINE","aspirin/codeine","PAIN RELIEF DRUGS","Y","4","topically","I'm not a doctor, I'm a data guru.","1"
"03-004","Clinical Site 03","03","19","F","Hispanic","Placebo","PLACEBO","Completed","2015-12-03","2016-11-23","357","Y","1","1","2016-01-04","33","2016-10-13","316","Agrylin","anagrelide","BLOOD MODIFYING DRUGS","Y","1","sublingually","I'm not a doctor, I'm a data guru.","1"
"03-004","Clinical Site 03","03","19","F","Hispanic","Placebo","PLACEBO","Completed","2015-12-03","2016-11-23","357","Y","1","2","2016-06-24","205","2016-08-30","272","Precose","acarbose","HORMONES, DIABETES AND RELATED DRUGS","N","2","orally","I'm not a doctor, I'm a data guru.","2"
"03-004","Clinical Site 03","03","19","F","Hispanic","Placebo","PLACEBO","Completed","2015-12-03","2016-11-23","357","Y","1","3","2016-07-19","230","2016-11-08","342","TRAZODONE","trazodone","CENTRAL NERVOUS SYSTEM DRUGS","N","3","orally","I'm not a doctor, I'm a data guru.","3"
"03-005","Clinical Site 03","03","48","M","Hispanic","Placebo","PLACEBO","Ongoing","2015-04-15","2015-10-11","180","Y","1","1","2015-08-02","110","2015-10-29","198","Climara","estradiol patches","HORMONES, DIABETES AND RELATED DRUGS","N","3","orally","I'm not a doctor, I'm a data guru.","1"
"03-005","Clinical Site 03","03","48","M","Hispanic","Placebo","PLACEBO","Ongoing","2015-04-15","2015-10-11","180","Y","1","2","2015-08-22","130","2015-08-30","138","SODIUM FLUORIDE","sodium fluoride","SUPPLEMENTS","N","2","orally","I'm not a doctor, I'm a data guru.","2"
"03-005","Clinical Site 03","03","48","M","Hispanic","Placebo","PLACEBO","Ongoing","2015-04-15","2015-10-11","180","Y","1","3","2015-09-25","164","2016-03-05","326","Lariam","mefloquine","ANTI-INFECTIVE AGENTS","Y","5","subcutaneously","I'm not a doctor, I'm a data guru.","3"
"03-005","Clinical Site 03","03","48","M","Hispanic","Placebo","PLACEBO","Ongoing","2015-04-15","2015-10-11","180","Y","1","4","2016-01-23","284","2016-02-23","315","PREMPRO","conjugated estrogens/medroxyprogesterone","HORMONES, DIABETES AND RELATED DRUGS","Y","5","topically","I'm not a doctor, I'm a data guru.","4"
"03-005","Clinical Site 03","03","48","M","Hispanic","Placebo","PLACEBO","Ongoing","2015-04-15","2015-10-11","180","Y","1","5","2016-01-27","288","2016-03-20","341","Pediazole","erythromycin/sulfisoxazole","ANTI-INFECTIVE AGENTS","N","2","orally","I'm not a doctor, I'm a data guru.","5"
"03-006","Clinical Site 03","03","52","M","Other/Mixed","Treatment B","TRTB","Ongoing","2015-05-24","2015-08-30","99","Y","1",,,,,,,,,,,,,
"03-007","Clinical Site 03","03","49","F","Other/Mixed","Treatment A","TRTA","Completed","2015-08-18","2016-08-06","355","Y","1","1","2016-02-27","194","2016-08-16","365","TRIAMCINOLONE","triamcinolone","TOPICAL PRODUCTS","Y","4","intravenously","I'm not a doctor, I'm a data guru.","1"
"03-007","Clinical Site 03","03","49","F","Other/Mixed","Treatment A","TRTA","Completed","2015-08-18","2016-08-06","355","Y","1","2","2016-05-21","278","2016-07-31","349","VIGAMOx","moxifloxacin","TOPICAL PRODUCTS","N","2","orally","I'm not a doctor, I'm a data guru.","2"
"03-007","Clinical Site 03","03","49","F","Other/Mixed","Treatment A","TRTA","Completed","2015-08-18","2016-08-06","355","Y","1","3","2016-08-10","359","2016-08-12","361","DIASTAT","diazepam","NEUROMUSCULAR DRUGS","Y","5","sublingually","I'm not a doctor, I'm a data guru.","3"
"03-008","Clinical Site 03","03","46","M","Black","Treatment B","TRTB","Ongoing","2015-03-08","2016-02-17","347","Y","1",,,,,,,,,,,,,
"03-009","Clinical Site 03","03","28","F","White","Placebo","PLACEBO","Early Termination","2015-11-15","2016-02-19","97","Y","1","1","2016-01-11","58","2016-08-06","266","HYDRALAZINE","hydralazine","HEART AND CIRCULATORY DRUGS","N","5","orally","I'm not a doctor, I'm a data guru.","1"
"03-009","Clinical Site 03","03","28","F","White","Placebo","PLACEBO","Early Termination","2015-11-15","2016-02-19","97","Y","1","2","2016-05-25","193","2016-10-17","338","Nordette","levonorgestrel/ethinyl estradiol","HORMONES, DIABETES AND RELATED DRUGS","N","3","orally","I'm not a doctor, I'm a data guru.","2"
"03-009","Clinical Site 03","03","28","F","White","Placebo","PLACEBO","Early Termination","2015-11-15","2016-02-19","97","Y","1","3","2016-10-11","332","2016-11-09","361","Lopid","gemfibrozil","HEART AND CIRCULATORY DRUGS","Y","5","subcutaneously","I'm not a doctor, I'm a data guru.","3"
"03-010","Clinical Site 03","03","40","M","White","Placebo","PLACEBO","Completed","2015-02-07","2016-02-13","372","Y","1","1","2015-04-16","69","2015-10-05","241","PREMARIN crm","conjugated estrogens","GENITOURINARY DRUGS","N","2","topically","I'm not a doctor, I'm a data guru.","1"
"03-010","Clinical Site 03","03","40","M","White","Placebo","PLACEBO","Completed","2015-02-07","2016-02-13","372","Y","1","2","2015-08-11","186","2015-10-10","246","MIRAPEx","pramipexole","NEUROMUSCULAR DRUGS","Y","1","orally","I'm not a doctor, I'm a data guru.","2"
"03-010","Clinical Site 03","03","40","M","White","Placebo","PLACEBO","Completed","2015-02-07","2016-02-13","372","Y","1","3","2015-12-12","309","2015-12-29","326","PROCHLORPERAZINE TABS","prochlorperazine tabs","CENTRAL NERVOUS SYSTEM DRUGS","N","4","topically","I'm not a doctor, I'm a data guru.","3"
"03-010","Clinical Site 03","03","40","M","White","Placebo","PLACEBO","Completed","2015-02-07","2016-02-13","372","Y","1","4","2015-12-28","325","2015-12-28","325","DILANTIN 30 mg","phenytoin sodium extended","NEUROMUSCULAR DRUGS","Y","3","orally","I'm not a doctor, I'm a data guru.","4"
"03-011","Clinical Site 03","03","43","M","Black","Treatment A","TRTA","Early Termination","2015-11-16","2016-01-05","51","Y","1","1","2016-02-02","79","2016-03-27","133","ultram","tramadol","PAIN RELIEF DRUGS","Y","1","sublingually","I'm not a doctor, I'm a data guru.","1"
"03-011","Clinical Site 03","03","43","M","Black","Treatment A","TRTA","Early Termination","2015-11-16","2016-01-05","51","Y","1","2","2016-06-19","217","2016-10-15","335","ARICEPT","donepezil","CENTRAL NERVOUS SYSTEM DRUGS","Y","2","subcutaneously","I'm not a doctor, I'm a data guru.","2"
"03-012","Clinical Site 03","03","32","M","Black","Placebo","PLACEBO","Ongoing","2015-08-19","2016-05-19","275","Y","1","1","2015-11-21","95","2016-04-12","238","Megace","megestrol","CANCER DRUGS","N","5","intravenously","I'm not a doctor, I'm a data guru.","1"
"03-012","Clinical Site 03","03","32","M","Black","Placebo","PLACEBO","Ongoing","2015-08-19","2016-05-19","275","Y","1","2","2016-02-11","177","2016-07-01","318","COLCHICINE","colchicine","PAIN RELIEF DRUGS","Y","2","orally","I'm not a doctor, I'm a data guru.","2"
"03-012","Clinical Site 03","03","32","M","Black","Placebo","PLACEBO","Ongoing","2015-08-19","2016-05-19","275","Y","1","3","2016-02-18","184","2016-03-05","200","Flagyl","metronidazole tabs","ANTI-INFECTIVE AGENTS","N","3","orally","I'm not a doctor, I'm a data guru.","3"
"03-012","Clinical Site 03","03","32","M","Black","Placebo","PLACEBO","Ongoing","2015-08-19","2016-05-19","275","Y","1","4","2016-03-14","209","2016-08-04","352","CEENu","lomustine","CANCER DRUGS","N","3","topically","I'm not a doctor, I'm a data guru.","4"
"03-012","Clinical Site 03","03","32","M","Black","Placebo","PLACEBO","Ongoing","2015-08-19","2016-05-19","275","Y","1","5","2016-08-15","363","2016-08-15","363","ExELON patches","rivastigmine","CENTRAL NERVOUS SYSTEM DRUGS","Y","2","orally","I'm not a doctor, I'm a data guru.","5"
"03-013","Clinical Site 03","03","33","M","Other/Mixed","Placebo","PLACEBO","Ongoing","2015-10-28","2016-08-19","297","Y","1","1","2015-10-28","1","2016-10-01","340","Bentyl","dicyclomine","GASTROINTESTINAL DRUGS","Y","2","topically","I'm not a doctor, I'm a data guru.","1"
"03-013","Clinical Site 03","03","33","M","Other/Mixed","Placebo","PLACEBO","Ongoing","2015-10-28","2016-08-19","297","Y","1","2","2015-12-24","58","2016-01-24","89","Allegra","fexofenadine","RESPIRATORY AGENTS","N","1","orally","I'm not a doctor, I'm a data guru.","2"
"03-013","Clinical Site 03","03","33","M","Other/Mixed","Placebo","PLACEBO","Ongoing","2015-10-28","2016-08-19","297","Y","1","3","2016-02-05","101","2016-03-22","147","GYNAZOLE-1","butoconazole","GENITOURINARY DRUGS","Y","1","topically","I'm not a doctor, I'm a data guru.","3"
"03-013","Clinical Site 03","03","33","M","Other/Mixed","Placebo","PLACEBO","Ongoing","2015-10-28","2016-08-19","297","Y","1","4","2016-05-02","188","2016-09-12","321","Retin-A","tretinoin","TOPICAL PRODUCTS","N","4","orally","I'm not a doctor, I'm a data guru.","4"
"03-014","Clinical Site 03","03","53","F","Black","Placebo","PLACEBO","Ongoing","2015-02-06","2015-03-07","30","Y","1","1","2015-04-03","57","2015-11-13","281","RESTORIL 7.5 mg","temazepam","CENTRAL NERVOUS SYSTEM DRUGS","N","4","orally","I'm not a doctor, I'm a data guru.","1"
"03-014","Clinical Site 03","03","53","F","Black","Placebo","PLACEBO","Ongoing","2015-02-06","2015-03-07","30","Y","1","2","2015-07-19","164","2015-09-20","227","FEMRING","estradiol acetate","HORMONES, DIABETES AND RELATED DRUGS","Y","3","orally","I'm not a doctor, I'm a data guru.","2"
"03-014","Clinical Site 03","03","53","F","Black","Placebo","PLACEBO","Ongoing","2015-02-06","2015-03-07","30","Y","1","3","2015-11-17","285","2015-11-25","293","Prinivil","lisinopril","HEART AND CIRCULATORY DRUGS","N","4","orally","I'm not a doctor, I'm a data guru.","3"
"03-014","Clinical Site 03","03","53","F","Black","Placebo","PLACEBO","Ongoing","2015-02-06","2015-03-07","30","Y","1","4","2016-01-12","341","2016-02-04","364","SuBOxONE","buprenorphine/naloxone","PAIN RELIEF DRUGS","N","5","intravenously","I'm not a doctor, I'm a data guru.","4"
"03-014","Clinical Site 03","03","53","F","Black","Placebo","PLACEBO","Ongoing","2015-02-06","2015-03-07","30","Y","1","5","2016-01-26","355","2016-01-27","356","ALLOPURINOL","allopurinol","PAIN RELIEF DRUGS","N","4","orally","I'm not a doctor, I'm a data guru.","5"
"03-015","Clinical Site 03","03","24","F","Black","Placebo","PLACEBO","Completed","2015-07-21","2016-07-13","359","Y","1","1","2015-07-21","1","2016-05-09","294","Trusopt","dorzolamide soln","TOPICAL PRODUCTS","N","1","topically","I'm not a doctor, I'm a data guru.","1"
"03-015","Clinical Site 03","03","24","F","Black","Placebo","PLACEBO","Completed","2015-07-21","2016-07-13","359","Y","1","2","2015-08-18","29","2016-02-19","214","TRAVATAN","travoprost","TOPICAL PRODUCTS","Y","4","orally","I'm not a doctor, I'm a data guru.","2"
"03-015","Clinical Site 03","03","24","F","Black","Placebo","PLACEBO","Completed","2015-07-21","2016-07-13","359","Y","1","3","2015-09-06","48","2015-11-23","126","uRSO","ursodiol","GASTROINTESTINAL DRUGS","N","1","orally","I'm not a doctor, I'm a data guru.","3"
"03-015","Clinical Site 03","03","24","F","Black","Placebo","PLACEBO","Completed","2015-07-21","2016-07-13","359","Y","1","4","2016-03-05","229","2016-03-21","245","Silvadene","silver sulfadiazine","TOPICAL PRODUCTS","N","1","orally","I'm not a doctor, I'm a data guru.","4"
"03-015","Clinical Site 03","03","24","F","Black","Placebo","PLACEBO","Completed","2015-07-21","2016-07-13","359","Y","1","5","2016-03-15","239","2016-04-18","273","Monoket","isosorbide mononitrate","HEART AND CIRCULATORY DRUGS","N","2","topically","I'm not a doctor, I'm a data guru.","5"
"03-016","Clinical Site 03","03","20","F","White","Treatment A","TRTA","Ongoing","2015-05-04","2015-07-04","62","Y","1",,,,,,,,,,,,,
"03-017","Clinical Site 03","03","43","M","Black","Treatment B","TRTB","Ongoing","2015-06-26","2015-10-27","124","Y","1","1","2015-07-18","23","2015-12-24","182","DILANTIN INFATABS","phenytoin","NEUROMUSCULAR DRUGS","N","3","orally","I'm not a doctor, I'm a data guru.","1"
"03-017","Clinical Site 03","03","43","M","Black","Treatment B","TRTB","Ongoing","2015-06-26","2015-10-27","124","Y","1","2","2015-10-22","119","2016-04-06","286","CARAC","fluorouracil","TOPICAL PRODUCTS","N","5","orally","I'm not a doctor, I'm a data guru.","2"
"03-017","Clinical Site 03","03","43","M","Black","Treatment B","TRTB","Ongoing","2015-06-26","2015-10-27","124","Y","1","3","2015-12-01","159","2016-03-05","254","HECTOROL","doxercalciferol","HORMONES, DIABETES AND RELATED DRUGS","N","1","orally","I'm not a doctor, I'm a data guru.","3"
"03-017","Clinical Site 03","03","43","M","Black","Treatment B","TRTB","Ongoing","2015-06-26","2015-10-27","124","Y","1","4","2016-03-19","268","2016-03-23","272","EVISTA","raloxifene","HORMONES, DIABETES AND RELATED DRUGS","Y","3","orally","I'm not a doctor, I'm a data guru.","4"
"03-018","Clinical Site 03","03","19","M","Hispanic","Placebo","PLACEBO","Ongoing","2015-05-30","2015-08-30","93","Y","1","1","2015-10-21","145","2016-05-14","351","CRESTOR","rosuvastatin","HEART AND CIRCULATORY DRUGS","Y","4","orally","I'm not a doctor, I'm a data guru.","1"
"03-018","Clinical Site 03","03","19","M","Hispanic","Placebo","PLACEBO","Ongoing","2015-05-30","2015-08-30","93","Y","1","2","2016-05-15","352","2016-05-22","359","LOTEMAx","loteprednol","TOPICAL PRODUCTS","N","5","orally","I'm not a doctor, I'm a data guru.","2"
"03-019","Clinical Site 03","03","18","M","Hispanic","Treatment B","TRTB","Completed","2015-11-06","2016-11-07","368","Y","1","1","2015-11-15","10","2015-12-12","37","Dilaudid","hydromorphone tabs","PAIN RELIEF DRUGS","Y","1","subcutaneously","I'm not a doctor, I'm a data guru.","1"
"03-019","Clinical Site 03","03","18","M","Hispanic","Treatment B","TRTB","Completed","2015-11-06","2016-11-07","368","Y","1","2","2015-11-27","22","2016-02-14","101","ESTAZOLAM","estazolam","CENTRAL NERVOUS SYSTEM DRUGS","N","1","orally","I'm not a doctor, I'm a data guru.","2"
"03-019","Clinical Site 03","03","18","M","Hispanic","Treatment B","TRTB","Completed","2015-11-06","2016-11-07","368","Y","1","3","2016-03-09","125","2016-10-18","348","Dovonex","calcipotriene soln","TOPICAL PRODUCTS","Y","5","orally","I'm not a doctor, I'm a data guru.","3"
"03-020","Clinical Site 03","03","50","M","White","Treatment A","TRTA","Ongoing","2015-08-09","2015-12-09","123","Y","1","1","2016-03-05","210","2016-05-04","270","TRAVATAN Z","travoprost","TOPICAL PRODUCTS","N","1","orally","I'm not a doctor, I'm a data guru.","1"
"03-020","Clinical Site 03","03","50","M","White","Treatment A","TRTA","Ongoing","2015-08-09","2015-12-09","123","Y","1","2","2016-03-11","216","2016-06-11","308","Nitro-Dur","nitroglycerin patches","HEART AND CIRCULATORY DRUGS","N","3","intravenously","I'm not a doctor, I'm a data guru.","2"
"03-020","Clinical Site 03","03","50","M","White","Treatment A","TRTA","Ongoing","2015-08-09","2015-12-09","123","Y","1","3","2016-08-04","362","2016-08-06","364","MENEST","esterified estrogens","HORMONES, DIABETES AND RELATED DRUGS","N","2","orally","I'm not a doctor, I'm a data guru.","3"
"03-021","Clinical Site 03","03","18","M","Hispanic","Treatment A","TRTA","Ongoing","2015-09-21","2016-08-09","324","Y","1","1","2016-03-14","176","2016-06-04","258","MINOXIDIL","minoxidil","HEART AND CIRCULATORY DRUGS","N","1","intravenously","I'm not a doctor, I'm a data guru.","1"
"03-021","Clinical Site 03","03","18","M","Hispanic","Treatment A","TRTA","Ongoing","2015-09-21","2016-08-09","324","Y","1","2","2016-04-03","196","2016-05-28","251","Grifulvin V","griseofulvin microsize susp","ANTI-INFECTIVE AGENTS","N","5","orally","I'm not a doctor, I'm a data guru.","2"
"03-021","Clinical Site 03","03","18","M","Hispanic","Treatment A","TRTA","Ongoing","2015-09-21","2016-08-09","324","Y","1","3","2016-07-27","311","2016-09-08","354","Rifamate","isoniazid/rifampin","ANTI-INFECTIVE AGENTS","N","3","intravenously","I'm not a doctor, I'm a data guru.","3"
"03-022","Clinical Site 03","03","49","M","Hispanic","Placebo","PLACEBO","Ongoing","2015-05-14","2016-04-14","337","Y","1","1","2015-06-21","39","2016-02-26","289","EVOxAC","cevimeline caps","TOPICAL PRODUCTS","Y","3","sublingually","I'm not a doctor, I'm a data guru.","1"
"03-022","Clinical Site 03","03","49","M","Hispanic","Placebo","PLACEBO","Ongoing","2015-05-14","2016-04-14","337","Y","1","2","2015-08-19","98","2015-11-29","200","DOXYCYCLINE HYCLATE","doxycycline hyclate","ANTI-INFECTIVE AGENTS","Y","4","subcutaneously","I'm not a doctor, I'm a data guru.","2"
"03-022","Clinical Site 03","03","49","M","Hispanic","Placebo","PLACEBO","Ongoing","2015-05-14","2016-04-14","337","Y","1","3","2016-03-04","296","2016-03-06","298","Mestinon","pyridostigmine tabs","NEUROMUSCULAR DRUGS","N","5","orally","I'm not a doctor, I'm a data guru.","3"
"03-023","Clinical Site 03","03","52","M","Hispanic","Placebo","PLACEBO","Ongoing","2015-03-25","2015-06-03","71","Y","1","1","2015-05-30","67","2016-01-07","289","Viroptic","trifluridine soln","TOPICAL PRODUCTS","Y","2","orally","I'm not a doctor, I'm a data guru.","1"
"03-023","Clinical Site 03","03","52","M","Hispanic","Placebo","PLACEBO","Ongoing","2015-03-25","2015-06-03","71","Y","1","2","2015-11-21","242","2015-11-28","249","Omnicef","cefdinir","ANTI-INFECTIVE AGENTS","N","1","orally","I'm not a doctor, I'm a data guru.","2"
"03-024","Clinical Site 03","03","27","F","White","Screen Failure","SCRNFAIL","Screen Failure","2015-03-16","2015-03-16","1","N","0",,,,,,,,,,,,,
"03-025","Clinical Site 03","03","53","F","Black","Treatment B","TRTB","Ongoing","2015-04-29","2016-02-16","294","Y","1",,,,,,,,,,,,,
"03-026","Clinical Site 03","03","18","M","White","Treatment B","TRTB","Ongoing","2015-10-08","2015-10-28","21","Y","1","1","2015-12-23","77","2016-06-25","262","SORIATANE CK Kit","acitretin","TOPICAL PRODUCTS","Y","2","orally","I'm not a doctor, I'm a data guru.","1"
"03-026","Clinical Site 03","03","18","M","White","Treatment B","TRTB","Ongoing","2015-10-08","2015-10-28","21","Y","1","2","2016-02-10","126","2016-04-05","181","ATRIPLA","efavirenz/emtricitabine/tenofovir","ANTI-INFECTIVE AGENTS","Y","5","orally","I'm not a doctor, I'm a data guru.","2"
"03-026","Clinical Site 03","03","18","M","White","Treatment B","TRTB","Ongoing","2015-10-08","2015-10-28","21","Y","1","3","2016-03-07","152","2016-05-12","218","PREMARIN crm","conjugated estrogens","GENITOURINARY DRUGS","N","4","subcutaneously","I'm not a doctor, I'm a data guru.","3"
"03-027","Clinical Site 03","03","37","F","Other/Mixed","Treatment B","TRTB","Ongoing","2015-05-10","2015-05-25","16","Y","1","1","2016-03-22","318","2016-04-24","351","VIDEx","didanosine","ANTI-INFECTIVE AGENTS","Y","4","sublingually","I'm not a doctor, I'm a data guru.","1"
"03-028","Clinical Site 03","03","37","F","Other/Mixed","Placebo","PLACEBO","Ongoing","2015-03-08","2015-11-22","260","Y","1","1","2015-05-25","79","2015-11-28","266","MENEST","esterified estrogens","HORMONES, DIABETES AND RELATED DRUGS","Y","2","orally","I'm not a doctor, I'm a data guru.","1"
"03-028","Clinical Site 03","03","37","F","Other/Mixed","Placebo","PLACEBO","Ongoing","2015-03-08","2015-11-22","260","Y","1","2","2015-06-21","106","2015-11-16","254","Accutane","isotretinoin caps","TOPICAL PRODUCTS","N","5","orally","I'm not a doctor, I'm a data guru.","2"
"03-028","Clinical Site 03","03","37","F","Other/Mixed","Placebo","PLACEBO","Ongoing","2015-03-08","2015-11-22","260","Y","1","3","2015-12-17","285","2016-02-10","340","K-Phos Neutral","potassium phosphate/sodium phosphates","SUPPLEMENTS","N","4","orally","I'm not a doctor, I'm a data guru.","3"
"03-028","Clinical Site 03","03","37","F","Other/Mixed","Placebo","PLACEBO","Ongoing","2015-03-08","2015-11-22","260","Y","1","4","2015-12-24","292","2015-12-28","296","AMPICILLIN CAPS","ampicillin caps","ANTI-INFECTIVE AGENTS","N","1","orally","I'm not a doctor, I'm a data guru.","4"
"03-029","Clinical Site 03","03","26","M","White","Placebo","PLACEBO","Ongoing","2015-06-03","2016-02-24","267","Y","1",,,,,,,,,,,,,
"03-030","Clinical Site 03","03","18","M","Hispanic","Treatment B","TRTB","Ongoing","2015-03-30","2015-12-19","265","Y","1","1","2015-10-17","202","2016-03-17","354","FEMARA","letrozole","CANCER DRUGS","N","1","orally","I'm not a doctor, I'm a data guru.","1"
"03-030","Clinical Site 03","03","18","M","Hispanic","Treatment B","TRTB","Ongoing","2015-03-30","2015-12-19","265","Y","1","2","2015-12-11","257","2016-02-03","311","NYSTATIN TABS","nystatin tabs","ANTI-INFECTIVE AGENTS","N","5","sublingually","I'm not a doctor, I'm a data guru.","2"
"03-030","Clinical Site 03","03","18","M","Hispanic","Treatment B","TRTB","Ongoing","2015-03-30","2015-12-19","265","Y","1","3","2016-01-06","283","2016-01-13","290","CORTISONE ACETATE","cortisone acetate","HORMONES, DIABETES AND RELATED DRUGS","Y","1","orally","I'm not a doctor, I'm a data guru.","3"
"04-001","Clinical Site 04","04","21","M","Hispanic","Screen Failure","SCRNFAIL","Screen Failure","2015-02-11","2015-02-11","1","N","0",,,,,,,,,,,,,
"04-002","Clinical Site 04","04","54","F","White","Treatment A","TRTA","Completed","2015-06-19","2016-06-09","357","Y","1","1","2015-09-18","92","2015-12-31","196","Bactroban","mupirocin oint","TOPICAL PRODUCTS","N","2","orally","I'm not a doctor, I'm a data guru.","1"
"04-003","Clinical Site 04","04","25","M","Other/Mixed","Treatment A","TRTA","Ongoing","2015-11-17","2015-12-30","44","Y","1","1","2015-11-24","8","2015-12-01","15","ACTOPLuS MET","pioglitazone/metformin","HORMONES, DIABETES AND RELATED DRUGS","N","5","orally","I'm not a doctor, I'm a data guru.","1"
"04-003","Clinical Site 04","04","25","M","Other/Mixed","Treatment A","TRTA","Ongoing","2015-11-17","2015-12-30","44","Y","1","2","2016-01-02","47","2016-08-10","268","Nor-QD","norethindrone","HORMONES, DIABETES AND RELATED DRUGS","Y","1","subcutaneously","I'm not a doctor, I'm a data guru.","2"
"04-003","Clinical Site 04","04","25","M","Other/Mixed","Treatment A","TRTA","Ongoing","2015-11-17","2015-12-30","44","Y","1","3","2016-01-20","65","2016-05-11","177","Prinzide","lisinopril/hydrochlorothiazide","HEART AND CIRCULATORY DRUGS","N","3","orally","I'm not a doctor, I'm a data guru.","3"
"04-003","Clinical Site 04","04","25","M","Other/Mixed","Treatment A","TRTA","Ongoing","2015-11-17","2015-12-30","44","Y","1","4","2016-05-01","167","2016-08-06","264","BACITRACIN OINT","bacitracin oint","TOPICAL PRODUCTS","N","2","intravenously","I'm not a doctor, I'm a data guru.","4"
"04-004","Clinical Site 04","04","39","M","Black","Placebo","PLACEBO","Ongoing","2015-08-03","2016-01-10","161","Y","1","1","2015-09-19","48","2016-02-29","211","Modicon","norethindrone/ethinyl estradiol","HORMONES, DIABETES AND RELATED DRUGS","N","1","subcutaneously","I'm not a doctor, I'm a data guru.","1"
"04-004","Clinical Site 04","04","39","M","Black","Placebo","PLACEBO","Ongoing","2015-08-03","2016-01-10","161","Y","1","2","2016-05-22","294","2016-07-01","334","Questran, Questran Light","cholestyramine","HEART AND CIRCULATORY DRUGS","N","2","subcutaneously","I'm not a doctor, I'm a data guru.","2"
"04-005","Clinical Site 04","04","42","M","White","Treatment B","TRTB","Completed","2015-08-17","2016-08-20","370","Y","1","1","2016-02-25","193","2016-04-07","235","Sonata","zaleplon","CENTRAL NERVOUS SYSTEM DRUGS","Y","4","orally","I'm not a doctor, I'm a data guru.","1"
"04-006","Clinical Site 04","04","29","M","White","Screen Failure","SCRNFAIL","Screen Failure","2015-10-31","2015-10-31","1","N","0",,,,,,,,,,,,,
"04-007","Clinical Site 04","04","24","M","Hispanic","Treatment B","TRTB","Completed","2015-04-15","2016-04-08","360","Y","1","1","2015-09-11","150","2015-11-06","206","CARAFATE susp","sucralfate","GASTROINTESTINAL DRUGS","N","4","orally","I'm not a doctor, I'm a data guru.","1"
"04-007","Clinical Site 04","04","24","M","Hispanic","Treatment B","TRTB","Completed","2015-04-15","2016-04-08","360","Y","1","2","2015-09-27","166","2016-03-06","327","Prinzide","lisinopril/hydrochlorothiazide","HEART AND CIRCULATORY DRUGS","Y","4","subcutaneously","I'm not a doctor, I'm a data guru.","2"
"04-007","Clinical Site 04","04","24","M","Hispanic","Treatment B","TRTB","Completed","2015-04-15","2016-04-08","360","Y","1","3","2016-02-13","305","2016-03-16","337","Diflucan","fluconazole","ANTI-INFECTIVE AGENTS","N","3","orally","I'm not a doctor, I'm a data guru.","3"
"04-008","Clinical Site 04","04","31","F","Black","Placebo","PLACEBO","Completed","2015-04-10","2016-04-02","359","Y","1","1","2015-07-23","105","2015-11-20","225","BENZOCAINE/ANTIPYRINE","benzocaine/antipyrine","TOPICAL PRODUCTS","N","5","orally","I'm not a doctor, I'm a data guru.","1"
"04-008","Clinical Site 04","04","31","F","Black","Placebo","PLACEBO","Completed","2015-04-10","2016-04-02","359","Y","1","2","2015-11-17","222","2015-12-13","248","Nitrostat","nitroglycerin sublingual tabs","HEART AND CIRCULATORY DRUGS","Y","2","orally","I'm not a doctor, I'm a data guru.","2"
"04-009","Clinical Site 04","04","39","F","Hispanic","Placebo","PLACEBO","Ongoing","2015-01-22","2015-10-27","279","Y","1","1","2015-01-23","2","2015-09-08","230","Cutivate","fluticasone propionate","TOPICAL PRODUCTS","Y","3","topically","I'm not a doctor, I'm a data guru.","1"
"04-009","Clinical Site 04","04","39","F","Hispanic","Placebo","PLACEBO","Ongoing","2015-01-22","2015-10-27","279","Y","1","2","2015-04-04","73","2015-05-10","109","Ritalin","methylphenidate","CENTRAL NERVOUS SYSTEM DRUGS","Y","1","orally","I'm not a doctor, I'm a data guru.","2"
"04-009","Clinical Site 04","04","39","F","Hispanic","Placebo","PLACEBO","Ongoing","2015-01-22","2015-10-27","279","Y","1","3","2015-06-05","135","2015-09-13","235","Isopto Carpine","pilocarpine soln","TOPICAL PRODUCTS","N","5","sublingually","I'm not a doctor, I'm a data guru.","3"
"04-009","Clinical Site 04","04","39","F","Hispanic","Placebo","PLACEBO","Ongoing","2015-01-22","2015-10-27","279","Y","1","4","2015-06-29","159","2015-11-06","289","FLUDROCORTISONE","fludrocortisone","HORMONES, DIABETES AND RELATED DRUGS","Y","5","intravenously","I'm not a doctor, I'm a data guru.","4"
"04-009","Clinical Site 04","04","39","F","Hispanic","Placebo","PLACEBO","Ongoing","2015-01-22","2015-10-27","279","Y","1","5","2015-11-30","313","2016-01-06","350","Seasonale","levonorgestrel/ethinyl estradiol","HORMONES, DIABETES AND RELATED DRUGS","Y","4","intravenously","I'm not a doctor, I'm a data guru.","5"
"04-010","Clinical Site 04","04","18","F","White","Treatment B","TRTB","Ongoing","2015-12-14","2016-10-04","296","Y","1","1","2016-01-14","32","2016-07-13","213","SuPRAx","cefixime","ANTI-INFECTIVE AGENTS","Y","5","orally","I'm not a doctor, I'm a data guru.","1"
"04-010","Clinical Site 04","04","18","F","White","Treatment B","TRTB","Ongoing","2015-12-14","2016-10-04","296","Y","1","2","2016-01-31","49","2016-03-11","89","KETOPROFEN","ketoprofen","PAIN RELIEF DRUGS","Y","4","subcutaneously","I'm not a doctor, I'm a data guru.","2"
"04-010","Clinical Site 04","04","18","F","White","Treatment B","TRTB","Ongoing","2015-12-14","2016-10-04","296","Y","1","3","2016-08-12","243","2016-10-18","310","Famvir","famciclovir","ANTI-INFECTIVE AGENTS","N","1","topically","I'm not a doctor, I'm a data guru.","3"
"04-010","Clinical Site 04","04","18","F","White","Treatment B","TRTB","Ongoing","2015-12-14","2016-10-04","296","Y","1","4","2016-09-04","266","2016-11-10","333","ACTOS","pioglitazone","HORMONES, DIABETES AND RELATED DRUGS","N","4","topically","I'm not a doctor, I'm a data guru.","4"
"04-010","Clinical Site 04","04","18","F","White","Treatment B","TRTB","Ongoing","2015-12-14","2016-10-04","296","Y","1","5","2016-10-22","314","2016-11-01","324","Demadex","torsemide","HEART AND CIRCULATORY DRUGS","N","1","orally","I'm not a doctor, I'm a data guru.","5"
"04-011","Clinical Site 04","04","48","M","Other/Mixed","Treatment B","TRTB","Completed","2015-10-16","2016-10-20","371","Y","1","1","2015-10-17","2","2016-03-16","153","TAMIFLu","oseltamivir","ANTI-INFECTIVE AGENTS","N","1","sublingually","I'm not a doctor, I'm a data guru.","1"
"04-011","Clinical Site 04","04","48","M","Other/Mixed","Treatment B","TRTB","Completed","2015-10-16","2016-10-20","371","Y","1","2","2015-12-29","75","2016-05-11","209","DILANTIN 30 mg","phenytoin sodium extended","NEUROMUSCULAR DRUGS","Y","4","orally","I'm not a doctor, I'm a data guru.","2"
"04-011","Clinical Site 04","04","48","M","Other/Mixed","Treatment B","TRTB","Completed","2015-10-16","2016-10-20","371","Y","1","3","2016-02-16","124","2016-08-21","311","EPIVIR-HBV","lamivudine","ANTI-INFECTIVE AGENTS","N","3","orally","I'm not a doctor, I'm a data guru.","3"
"04-011","Clinical Site 04","04","48","M","Other/Mixed","Treatment B","TRTB","Completed","2015-10-16","2016-10-20","371","Y","1","4","2016-04-01","169","2016-07-16","275","Lotensin","benazepril","HEART AND CIRCULATORY DRUGS","N","3","orally","I'm not a doctor, I'm a data guru.","4"
"04-011","Clinical Site 04","04","48","M","Other/Mixed","Treatment B","TRTB","Completed","2015-10-16","2016-10-20","371","Y","1","5","2016-09-15","336","2016-09-28","349","LAMISIL granules","terbinafine","ANTI-INFECTIVE AGENTS","N","5","orally","I'm not a doctor, I'm a data guru.","5"
"04-012","Clinical Site 04","04","33","M","Black","Treatment B","TRTB","Completed","2015-06-26","2016-06-16","357","Y","1",,,,,,,,,,,,,
"04-013","Clinical Site 04","04","19","M","Hispanic","Treatment A","TRTA","Completed","2015-04-22","2016-04-24","369","Y","1","1","2015-05-07","16","2015-11-15","208","FARESTON","toremifene","CANCER DRUGS","N","1","orally","I'm not a doctor, I'm a data guru.","1"
"04-013","Clinical Site 04","04","19","M","Hispanic","Treatment A","TRTA","Completed","2015-04-22","2016-04-24","369","Y","1","2","2015-05-26","35","2015-08-04","105","ESTRASORB","estradiol","HORMONES, DIABETES AND RELATED DRUGS","N","2","sublingually","I'm not a doctor, I'm a data guru.","2"
"04-013","Clinical Site 04","04","19","M","Hispanic","Treatment A","TRTA","Completed","2015-04-22","2016-04-24","369","Y","1","3","2015-10-12","174","2015-11-07","200","Antivert","meclizine","GASTROINTESTINAL DRUGS","N","3","orally","I'm not a doctor, I'm a data guru.","3"
"04-013","Clinical Site 04","04","19","M","Hispanic","Treatment A","TRTA","Completed","2015-04-22","2016-04-24","369","Y","1","4","2016-02-11","296","2016-02-21","306","Prozac","fluoxetine","CENTRAL NERVOUS SYSTEM DRUGS","Y","5","orally","I'm not a doctor, I'm a data guru.","4"
"04-013","Clinical Site 04","04","19","M","Hispanic","Treatment A","TRTA","Completed","2015-04-22","2016-04-24","369","Y","1","5","2016-02-19","304","2016-03-17","331","OXYBUTYNIN","oxybutynin","GENITOURINARY DRUGS","N","5","topically","I'm not a doctor, I'm a data guru.","5"
"04-014","Clinical Site 04","04","36","M","Other/Mixed","Treatment B","TRTB","Ongoing","2015-05-14","2015-10-28","168","Y","1","1","2015-06-12","30","2015-09-10","120","Capoten","captopril","HEART AND CIRCULATORY DRUGS","Y","4","orally","I'm not a doctor, I'm a data guru.","1"
"04-014","Clinical Site 04","04","36","M","Other/Mixed","Treatment B","TRTB","Ongoing","2015-05-14","2015-10-28","168","Y","1","2","2016-01-12","244","2016-03-18","310","Imuran","azathioprine","MISCELLANEOUS CATEGORIES","N","1","topically","I'm not a doctor, I'm a data guru.","2"
"04-014","Clinical Site 04","04","36","M","Other/Mixed","Treatment B","TRTB","Ongoing","2015-05-14","2015-10-28","168","Y","1","3","2016-02-14","277","2016-03-07","299","Diflucan","fluconazole","ANTI-INFECTIVE AGENTS","Y","5","orally","I'm not a doctor, I'm a data guru.","3"
"04-015","Clinical Site 04","04","40","F","Hispanic","Treatment B","TRTB","Ongoing","2015-11-26","2016-06-08","196","Y","1","1","2016-02-05","72","2016-09-01","281","BACLOFEN","baclofen","NEUROMUSCULAR DRUGS","N","2","orally","I'm not a doctor, I'm a data guru.","1"
"04-015","Clinical Site 04","04","40","F","Hispanic","Treatment B","TRTB","Ongoing","2015-11-26","2016-06-08","196","Y","1","2","2016-09-03","283","2016-10-13","323","TOBRADEx","tobramycin/dexamethasone","TOPICAL PRODUCTS","N","4","orally","I'm not a doctor, I'm a data guru.","2"
"04-015","Clinical Site 04","04","40","F","Hispanic","Treatment B","TRTB","Ongoing","2015-11-26","2016-06-08","196","Y","1","3","2016-10-19","329","2016-11-06","347","SOLARAZE","diclofenac sodium","TOPICAL PRODUCTS","Y","4","subcutaneously","I'm not a doctor, I'm a data guru.","3"
"04-015","Clinical Site 04","04","40","F","Hispanic","Treatment B","TRTB","Ongoing","2015-11-26","2016-06-08","196","Y","1","4","2016-10-27","337","2016-11-04","345","TABLOID","thioguanine","CANCER DRUGS","N","5","orally","I'm not a doctor, I'm a data guru.","4"
"04-016","Clinical Site 04","04","40","M","Hispanic","Treatment A","TRTA","Ongoing","2015-04-27","2016-03-07","316","Y","1",,,,,,,,,,,,,
"04-017","Clinical Site 04","04","42","M","Other/Mixed","Screen Failure","SCRNFAIL","Screen Failure","2015-01-26","2015-01-26","1","N","0",,,,,,,,,,,,,
"04-018","Clinical Site 04","04","26","F","White","Screen Failure","SCRNFAIL","Screen Failure","2015-06-13","2015-06-13","1","N","0",,,,,,,,,,,,,
"04-019","Clinical Site 04","04","55","F","Other/Mixed","Placebo","PLACEBO","Ongoing","2015-01-20","2015-07-03","165","Y","1","1","2015-01-24","5","2015-01-28","9","PLAN B","levonorgestrel","HORMONES, DIABETES AND RELATED DRUGS","Y","3","orally","I'm not a doctor, I'm a data guru.","1"
"04-019","Clinical Site 04","04","55","F","Other/Mixed","Placebo","PLACEBO","Ongoing","2015-01-20","2015-07-03","165","Y","1","2","2015-02-14","26","2015-12-14","329","Aygestin","norethindrone acetate","HORMONES, DIABETES AND RELATED DRUGS","Y","2","orally","I'm not a doctor, I'm a data guru.","2"
"04-019","Clinical Site 04","04","55","F","Other/Mixed","Placebo","PLACEBO","Ongoing","2015-01-20","2015-07-03","165","Y","1","3","2015-08-07","200","2015-08-26","219","Dantrium","dantrolene","NEUROMUSCULAR DRUGS","N","3","orally","I'm not a doctor, I'm a data guru.","3"
"04-020","Clinical Site 04","04","24","F","White","Treatment B","TRTB","Ongoing","2015-09-14","2015-10-12","29","Y","1","1","2015-10-09","26","2016-07-01","292","CONDYLOx","podofilox","TOPICAL PRODUCTS","Y","1","orally","I'm not a doctor, I'm a data guru.","1"
"04-020","Clinical Site 04","04","24","F","White","Treatment B","TRTB","Ongoing","2015-09-14","2015-10-12","29","Y","1","2","2016-02-25","165","2016-03-29","198","LEVEMIR","insulin detemir","HORMONES, DIABETES AND RELATED DRUGS","N","3","orally","I'm not a doctor, I'm a data guru.","2"
"04-020","Clinical Site 04","04","24","F","White","Treatment B","TRTB","Ongoing","2015-09-14","2015-10-12","29","Y","1","3","2016-03-24","193","2016-09-12","365","Betapace","sotalol","HEART AND CIRCULATORY DRUGS","Y","3","orally","I'm not a doctor, I'm a data guru.","3"
"04-020","Clinical Site 04","04","24","F","White","Treatment B","TRTB","Ongoing","2015-09-14","2015-10-12","29","Y","1","4","2016-07-02","293","2016-08-20","342","COMBIVIR","lamivudine/zidovudine","ANTI-INFECTIVE AGENTS","N","2","intravenously","I'm not a doctor, I'm a data guru.","4"
"04-021","Clinical Site 04","04","21","M","White","Placebo","PLACEBO","Ongoing","2015-06-20","2015-09-01","74","Y","1",,,,,,,,,,,,,
"04-022","Clinical Site 04","04","54","F","White","Placebo","PLACEBO","Ongoing","2015-12-26","2016-07-08","196","Y","1",,,,,,,,,,,,,
"04-023","Clinical Site 04","04","21","M","Hispanic","Treatment A","TRTA","Early Termination","2015-10-04","2016-05-18","228","Y","1","1","2016-02-24","144","2016-06-21","262","LuMIGAN","bimatoprost","TOPICAL PRODUCTS","Y","5","orally","I'm not a doctor, I'm a data guru.","1"
"04-023","Clinical Site 04","04","21","M","Hispanic","Treatment A","TRTA","Early Termination","2015-10-04","2016-05-18","228","Y","1","2","2016-08-09","311","2016-10-01","364","uRSO","ursodiol","GASTROINTESTINAL DRUGS","N","5","orally","I'm not a doctor, I'm a data guru.","2"
"04-024","Clinical Site 04","04","26","M","Other/Mixed","Placebo","PLACEBO","Completed","2015-05-05","2016-04-24","356","Y","1",,,,,,,,,,,,,
"04-025","Clinical Site 04","04","26","M","Black","Treatment A","TRTA","Ongoing","2015-08-08","2015-09-04","28","Y","1","1","2016-01-14","160","2016-03-13","219","Glynase","glyburide micronized","HORMONES, DIABETES AND RELATED DRUGS","Y","2","topically","I'm not a doctor, I'm a data guru.","1"
"04-025","Clinical Site 04","04","26","M","Black","Treatment A","TRTA","Ongoing","2015-08-08","2015-09-04","28","Y","1","2","2016-05-01","268","2016-05-03","270","CIMETIDINE","cimetidine","GASTROINTESTINAL DRUGS","N","3","intravenously","I'm not a doctor, I'm a data guru.","2"
"04-026","Clinical Site 04","04","27","M","Other/Mixed","Placebo","PLACEBO","Ongoing","2015-07-02","2015-07-21","20","Y","1","1","2015-11-21","143","2016-05-18","322","MESTINON syrup","pyridostigmine","NEUROMUSCULAR DRUGS","N","5","topically","I'm not a doctor, I'm a data guru.","1"
"04-026","Clinical Site 04","04","27","M","Other/Mixed","Placebo","PLACEBO","Ongoing","2015-07-02","2015-07-21","20","Y","1","2","2016-03-01","244","2016-03-24","267","PuLMICORT RESPuLES","budesonide","RESPIRATORY AGENTS","Y","1","orally","I'm not a doctor, I'm a data guru.","2"
"04-027","Clinical Site 04","04","28","M","White","Treatment A","TRTA","Ongoing","2015-01-13","2015-09-10","241","Y","1","1","2015-02-06","25","2015-08-03","203","Condylox","podofilox soln","TOPICAL PRODUCTS","Y","2","orally","I'm not a doctor, I'm a data guru.","1"
"04-027","Clinical Site 04","04","28","M","White","Treatment A","TRTA","Ongoing","2015-01-13","2015-09-10","241","Y","1","2","2015-03-05","52","2015-06-23","162","RISPERDAL M-TAB","risperidone","CENTRAL NERVOUS SYSTEM DRUGS","N","3","orally","I'm not a doctor, I'm a data guru.","2"
"04-027","Clinical Site 04","04","28","M","White","Treatment A","TRTA","Ongoing","2015-01-13","2015-09-10","241","Y","1","3","2015-03-25","72","2015-07-12","181","ERYTHROMYCIN FILMTABS","erythromycin base","ANTI-INFECTIVE AGENTS","Y","3","orally","I'm not a doctor, I'm a data guru.","3"
"04-027","Clinical Site 04","04","28","M","White","Treatment A","TRTA","Ongoing","2015-01-13","2015-09-10","241","Y","1","4","2015-12-18","340","2015-12-19","341","FACTIVE","gemifloxacin","ANTI-INFECTIVE AGENTS","N","1","orally","I'm not a doctor, I'm a data guru.","4"
"04-027","Clinical Site 04","04","28","M","White","Treatment A","TRTA","Ongoing","2015-01-13","2015-09-10","241","Y","1","5","2015-12-26","348","2016-01-01","354","CEFADROXIL","cefadroxil","ANTI-INFECTIVE AGENTS","Y","2","orally","I'm not a doctor, I'm a data guru.","5"
"04-028","Clinical Site 04","04","51","M","Black","Placebo","PLACEBO","Ongoing","2015-01-23","2015-12-13","325","Y","1","1","2015-05-14","112","2015-12-11","323","AVELOx","moxifloxacin","ANTI-INFECTIVE AGENTS","Y","4","orally","I'm not a doctor, I'm a data guru.","1"
"04-028","Clinical Site 04","04","51","M","Black","Placebo","PLACEBO","Ongoing","2015-01-23","2015-12-13","325","Y","1","2","2015-11-20","302","2015-12-03","315","Parnate","tranylcypromine","CENTRAL NERVOUS SYSTEM DRUGS","Y","4","intravenously","I'm not a doctor, I'm a data guru.","2"
"04-028","Clinical Site 04","04","51","M","Black","Placebo","PLACEBO","Ongoing","2015-01-23","2015-12-13","325","Y","1","3","2015-12-06","318","2016-01-12","355","GYNAZOLE-1","butoconazole","GENITOURINARY DRUGS","N","2","orally","I'm not a doctor, I'm a data guru.","3"
"04-029","Clinical Site 04","04","49","M","Hispanic","Treatment A","TRTA","Ongoing","2015-05-12","2015-12-15","218","Y","1","1","2015-06-25","45","2015-12-29","232","DEPAKOTE SPRINKLES","divalproex","NEUROMUSCULAR DRUGS","Y","1","subcutaneously","I'm not a doctor, I'm a data guru.","1"
"04-029","Clinical Site 04","04","49","M","Hispanic","Treatment A","TRTA","Ongoing","2015-05-12","2015-12-15","218","Y","1","2","2015-12-13","216","2016-03-01","295","NITROLINGuAL","nitroglycerin","HEART AND CIRCULATORY DRUGS","N","3","subcutaneously","I'm not a doctor, I'm a data guru.","2"
"04-030","Clinical Site 04","04","31","F","Hispanic","Treatment B","TRTB","Early Termination","2015-04-25","2015-11-25","215","Y","1","1","2015-04-25","1","2015-11-11","201","ExFORGE","amlodipine/valsartan","HEART AND CIRCULATORY DRUGS","N","4","orally","I'm not a doctor, I'm a data guru.","1"
"04-030","Clinical Site 04","04","31","F","Hispanic","Treatment B","TRTB","Early Termination","2015-04-25","2015-11-25","215","Y","1","2","2015-05-11","17","2015-11-27","217","OXYBUTYNIN","oxybutynin","GENITOURINARY DRUGS","Y","3","subcutaneously","I'm not a doctor, I'm a data guru.","2"
"04-030","Clinical Site 04","04","31","F","Hispanic","Treatment B","TRTB","Early Termination","2015-04-25","2015-11-25","215","Y","1","3","2015-09-15","144","2015-10-03","162","Mycostatin","nystatin","TOPICAL PRODUCTS","Y","1","sublingually","I'm not a doctor, I'm a data guru.","3"
"04-030","Clinical Site 04","04","31","F","Hispanic","Treatment B","TRTB","Early Termination","2015-04-25","2015-11-25","215","Y","1","4","2016-03-16","327","2016-04-07","349","TOPAMAx","topiramate","NEUROMUSCULAR DRUGS","Y","2","orally","I'm not a doctor, I'm a data guru.","4"
"05-001","Clinical Site 05","05","48","F","Black","Treatment A","TRTA","Early Termination","2015-04-11","2015-10-12","185","Y","1","1","2015-06-27","78","2015-11-06","210","AVANDAMET","rosiglitazone/metformin","HORMONES, DIABETES AND RELATED DRUGS","N","5","orally","I'm not a doctor, I'm a data guru.","1"
"05-002","Clinical Site 05","05","24","M","Black","Treatment B","TRTB","Ongoing","2015-10-26","2016-07-22","271","Y","1","1","2015-10-26","1","2016-03-07","134","YAZ","drospirenone/ethinyl estradiol","HORMONES, DIABETES AND RELATED DRUGS","N","2","sublingually","I'm not a doctor, I'm a data guru.","1"
"05-003","Clinical Site 05","05","42","M","Black","Treatment B","TRTB","Completed","2015-09-26","2016-09-25","366","Y","1",,,,,,,,,,,,,
"05-004","Clinical Site 05","05","47","M","White","Placebo","PLACEBO","Ongoing","2015-10-29","2015-11-29","32","Y","1",,,,,,,,,,,,,
"05-005","Clinical Site 05","05","20","M","Other/Mixed","Treatment B","TRTB","Early Termination","2015-06-06","2015-11-24","172","Y","1","1","2015-09-04","91","2015-12-14","192","Ortho Tri-Cyclen","norgestimate/ethinyl estradiol","HORMONES, DIABETES AND RELATED DRUGS","N","2","orally","I'm not a doctor, I'm a data guru.","1"
"05-005","Clinical Site 05","05","20","M","Other/Mixed","Treatment B","TRTB","Early Termination","2015-06-06","2015-11-24","172","Y","1","2","2015-12-31","209","2016-03-05","274","Minipress","prazosin","HEART AND CIRCULATORY DRUGS","N","4","sublingually","I'm not a doctor, I'm a data guru.","2"
"05-005","Clinical Site 05","05","20","M","Other/Mixed","Treatment B","TRTB","Early Termination","2015-06-06","2015-11-24","172","Y","1","3","2016-01-23","232","2016-05-23","353","METHERGINE","methylergonovine","HORMONES, DIABETES AND RELATED DRUGS","N","4","orally","I'm not a doctor, I'm a data guru.","3"
"05-005","Clinical Site 05","05","20","M","Other/Mixed","Treatment B","TRTB","Early Termination","2015-06-06","2015-11-24","172","Y","1","4","2016-05-05","335","2016-06-03","364","CIMETIDINE","cimetidine","GASTROINTESTINAL DRUGS","Y","1","orally","I'm not a doctor, I'm a data guru.","4"
"05-005","Clinical Site 05","05","20","M","Other/Mixed","Treatment B","TRTB","Early Termination","2015-06-06","2015-11-24","172","Y","1","5","2016-05-30","360","2016-05-31","361","ALBENZA","albendazole","ANTI-INFECTIVE AGENTS","N","5","orally","I'm not a doctor, I'm a data guru.","5"
"05-006","Clinical Site 05","05","21","M","Hispanic","Screen Failure","SCRNFAIL","Screen Failure","2015-10-15","2015-10-15","1","N","0",,,,,,,,,,,,,
"05-007","Clinical Site 05","05","43","M","White","Treatment B","TRTB","Ongoing","2015-07-07","2015-08-17","42","Y","1","1","2015-09-22","78","2016-07-05","365","Benzamycin","erythromycin/benzoyl peroxide","TOPICAL PRODUCTS","Y","1","topically","I'm not a doctor, I'm a data guru.","1"
"05-007","Clinical Site 05","05","43","M","White","Treatment B","TRTB","Ongoing","2015-07-07","2015-08-17","42","Y","1","2","2016-03-09","247","2016-03-12","250","Westcort","hydrocortisone valerate","TOPICAL PRODUCTS","N","5","orally","I'm not a doctor, I'm a data guru.","2"
"05-007","Clinical Site 05","05","43","M","White","Treatment B","TRTB","Ongoing","2015-07-07","2015-08-17","42","Y","1","3","2016-05-09","308","2016-06-03","333","Flagyl","metronidazole tabs","ANTI-INFECTIVE AGENTS","N","4","orally","I'm not a doctor, I'm a data guru.","3"
"05-008","Clinical Site 05","05","26","F","Hispanic","Treatment B","TRTB","Ongoing","2015-10-12","2016-10-04","359","Y","1","1","2015-12-25","75","2016-06-27","260","TESTIM","testosterone","HORMONES, DIABETES AND RELATED DRUGS","N","2","orally","I'm not a doctor, I'm a data guru.","1"
"05-008","Clinical Site 05","05","26","F","Hispanic","Treatment B","TRTB","Ongoing","2015-10-12","2016-10-04","359","Y","1","2","2016-03-29","170","2016-06-04","237","Nordette","levonorgestrel/ethinyl estradiol","HORMONES, DIABETES AND RELATED DRUGS","Y","4","orally","I'm not a doctor, I'm a data guru.","2"
"05-008","Clinical Site 05","05","26","F","Hispanic","Treatment B","TRTB","Ongoing","2015-10-12","2016-10-04","359","Y","1","3","2016-04-02","174","2016-05-22","224","FARESTON","toremifene","CANCER DRUGS","N","2","orally","I'm not a doctor, I'm a data guru.","3"
"05-008","Clinical Site 05","05","26","F","Hispanic","Treatment B","TRTB","Ongoing","2015-10-12","2016-10-04","359","Y","1","4","2016-06-08","241","2016-06-14","247","Proamatine","midodrine","HEART AND CIRCULATORY DRUGS","Y","5","subcutaneously","I'm not a doctor, I'm a data guru.","4"
"05-009","Clinical Site 05","05","42","F","Hispanic","Placebo","PLACEBO","Completed","2015-12-16","2016-12-24","375","Y","1","1","2016-01-19","35","2016-06-04","172","PREZISTA","darunavir","ANTI-INFECTIVE AGENTS","N","3","topically","I'm not a doctor, I'm a data guru.","1"
"05-010","Clinical Site 05","05","43","F","White","Treatment B","TRTB","Completed","2015-02-06","2016-02-06","366","Y","1","1","2015-02-28","23","2015-08-20","196","CABERGOLINE","cabergoline","HORMONES, DIABETES AND RELATED DRUGS","N","2","topically","I'm not a doctor, I'm a data guru.","1"
"05-010","Clinical Site 05","05","43","F","White","Treatment B","TRTB","Completed","2015-02-06","2016-02-06","366","Y","1","2","2015-05-24","108","2015-06-05","120","ERYTHROMYCIN FILMTABS","erythromycin base","ANTI-INFECTIVE AGENTS","N","4","orally","I'm not a doctor, I'm a data guru.","2"
"05-010","Clinical Site 05","05","43","F","White","Treatment B","TRTB","Completed","2015-02-06","2016-02-06","366","Y","1","3","2015-09-06","213","2015-12-14","312","Reglan","metoclopramide","GASTROINTESTINAL DRUGS","N","3","subcutaneously","I'm not a doctor, I'm a data guru.","3"
"05-010","Clinical Site 05","05","43","F","White","Treatment B","TRTB","Completed","2015-02-06","2016-02-06","366","Y","1","4","2015-11-22","290","2016-01-03","332","AMPICILLIN CAPS","ampicillin caps","ANTI-INFECTIVE AGENTS","Y","5","subcutaneously","I'm not a doctor, I'm a data guru.","4"
"05-011","Clinical Site 05","05","49","M","Other/Mixed","Treatment A","TRTA","Ongoing","2015-02-04","2015-06-25","142","Y","1","1","2015-07-31","178","2015-09-27","236","Zonalon","doxepin crm","TOPICAL PRODUCTS","N","2","orally","I'm not a doctor, I'm a data guru.","1"
"05-011","Clinical Site 05","05","49","M","Other/Mixed","Treatment A","TRTA","Ongoing","2015-02-04","2015-06-25","142","Y","1","2","2015-08-22","200","2015-09-16","225","Anaprox","naproxen sodium","PAIN RELIEF DRUGS","N","1","orally","I'm not a doctor, I'm a data guru.","2"
"05-012","Clinical Site 05","05","45","M","Black","Treatment A","TRTA","Completed","2015-04-18","2016-04-26","375","Y","1","1","2015-06-04","48","2015-06-12","56","Reglan","metoclopramide","GASTROINTESTINAL DRUGS","N","3","orally","I'm not a doctor, I'm a data guru.","1"
"05-012","Clinical Site 05","05","45","M","Black","Treatment A","TRTA","Completed","2015-04-18","2016-04-26","375","Y","1","2","2015-08-13","118","2016-01-26","284","SULFACETAMIDE SODIUM/SULFUR LOTN","sulfacetamide sodium/sulfur lotn","TOPICAL PRODUCTS","Y","5","sublingually","I'm not a doctor, I'm a data guru.","2"
"05-012","Clinical Site 05","05","45","M","Black","Treatment A","TRTA","Completed","2015-04-18","2016-04-26","375","Y","1","3","2015-12-28","255","2016-03-03","321","SEASONIQuE","levonorgestrel/ethinyl estradiol","HORMONES, DIABETES AND RELATED DRUGS","Y","4","orally","I'm not a doctor, I'm a data guru.","3"
"05-012","Clinical Site 05","05","45","M","Black","Treatment A","TRTA","Completed","2015-04-18","2016-04-26","375","Y","1","4","2016-04-10","359","2016-04-15","364","CLOBEx","clobetasol","TOPICAL PRODUCTS","N","4","orally","I'm not a doctor, I'm a data guru.","4"
"05-013","Clinical Site 05","05","39","M","Hispanic","Treatment A","TRTA","Completed","2015-10-22","2016-10-22","367","Y","1","1","2015-10-24","3","2016-05-13","205","LYBREL","levonorgestrel/ethinyl estradiol","HORMONES, DIABETES AND RELATED DRUGS","Y","2","orally","I'm not a doctor, I'm a data guru.","1"
"05-013","Clinical Site 05","05","39","M","Hispanic","Treatment A","TRTA","Completed","2015-10-22","2016-10-22","367","Y","1","2","2015-11-07","17","2016-06-07","230","ORAP","pimozide","CENTRAL NERVOUS SYSTEM DRUGS","Y","2","intravenously","I'm not a doctor, I'm a data guru.","2"
"05-013","Clinical Site 05","05","39","M","Hispanic","Treatment A","TRTA","Completed","2015-10-22","2016-10-22","367","Y","1","3","2016-02-27","129","2016-05-21","213","CHEMET","succimer","MISCELLANEOUS CATEGORIES","N","3","topically","I'm not a doctor, I'm a data guru.","3"
"05-013","Clinical Site 05","05","39","M","Hispanic","Treatment A","TRTA","Completed","2015-10-22","2016-10-22","367","Y","1","4","2016-03-06","137","2016-04-29","191","NAMENDA","memantine","CENTRAL NERVOUS SYSTEM DRUGS","N","5","orally","I'm not a doctor, I'm a data guru.","4"
"05-013","Clinical Site 05","05","39","M","Hispanic","Treatment A","TRTA","Completed","2015-10-22","2016-10-22","367","Y","1","5","2016-07-18","271","2016-10-18","363","CLIMARA PRO","estradiol/levonorgestrel","HORMONES, DIABETES AND RELATED DRUGS","N","5","sublingually","I'm not a doctor, I'm a data guru.","5"
"05-014","Clinical Site 05","05","32","M","Other/Mixed","Treatment A","TRTA","Ongoing","2015-07-01","2016-03-14","258","Y","1","1","2015-07-11","11","2015-10-13","105","Nor-QD","norethindrone","HORMONES, DIABETES AND RELATED DRUGS","Y","3","orally","I'm not a doctor, I'm a data guru.","1"
"05-014","Clinical Site 05","05","32","M","Other/Mixed","Treatment A","TRTA","Ongoing","2015-07-01","2016-03-14","258","Y","1","2","2015-12-10","163","2016-06-25","361","Augmentin","amoxicillin/potassium clavulanate","ANTI-INFECTIVE AGENTS","Y","4","orally","I'm not a doctor, I'm a data guru.","2"
"05-015","Clinical Site 05","05","38","F","Hispanic","Treatment B","TRTB","Ongoing","2015-01-11","2015-11-14","308","Y","1","1","2015-01-29","19","2015-12-14","338","VALTREx","valacyclovir","ANTI-INFECTIVE AGENTS","Y","3","subcutaneously","I'm not a doctor, I'm a data guru.","1"
"05-015","Clinical Site 05","05","38","F","Hispanic","Treatment B","TRTB","Ongoing","2015-01-11","2015-11-14","308","Y","1","2","2015-04-25","105","2015-05-20","130","Valium","diazepam","CENTRAL NERVOUS SYSTEM DRUGS","Y","2","orally","I'm not a doctor, I'm a data guru.","2"
"05-015","Clinical Site 05","05","38","F","Hispanic","Treatment B","TRTB","Ongoing","2015-01-11","2015-11-14","308","Y","1","3","2015-11-15","309","2015-12-22","346","ExELON patches","rivastigmine","CENTRAL NERVOUS SYSTEM DRUGS","N","3","intravenously","I'm not a doctor, I'm a data guru.","3"
"05-015","Clinical Site 05","05","38","F","Hispanic","Treatment B","TRTB","Ongoing","2015-01-11","2015-11-14","308","Y","1","4","2015-12-04","328","2016-01-02","357","Benzamycin","erythromycin/benzoyl peroxide","TOPICAL PRODUCTS","Y","4","subcutaneously","I'm not a doctor, I'm a data guru.","4"
"05-016","Clinical Site 05","05","42","F","Other/Mixed","Treatment A","TRTA","Ongoing","2015-06-15","2015-07-31","47","Y","1","1","2015-07-09","25","2015-07-14","30","Cardura","doxazosin","HEART AND CIRCULATORY DRUGS","N","4","orally","I'm not a doctor, I'm a data guru.","1"
"05-016","Clinical Site 05","05","42","F","Other/Mixed","Treatment A","TRTA","Ongoing","2015-06-15","2015-07-31","47","Y","1","2","2015-08-01","48","2015-09-13","91","HuMALOG MIx 50/50","insulin lispro protamine/lispro","HORMONES, DIABETES AND RELATED DRUGS","Y","3","orally","I'm not a doctor, I'm a data guru.","2"
"05-016","Clinical Site 05","05","42","F","Other/Mixed","Treatment A","TRTA","Ongoing","2015-06-15","2015-07-31","47","Y","1","3","2015-12-07","176","2016-02-25","256","Bicitra","sodium citrate/citric acid","GENITOURINARY DRUGS","Y","1","subcutaneously","I'm not a doctor, I'm a data guru.","3"
"05-017","Clinical Site 05","05","40","M","Hispanic","Placebo","PLACEBO","Ongoing","2015-07-03","2016-05-10","313","Y","1","1","2015-10-10","100","2015-12-19","170","DETROL","tolterodine","GENITOURINARY DRUGS","Y","2","orally","I'm not a doctor, I'm a data guru.","1"
"05-017","Clinical Site 05","05","40","M","Hispanic","Placebo","PLACEBO","Ongoing","2015-07-03","2016-05-10","313","Y","1","2","2015-11-24","145","2016-01-23","205","LOPROx shampoo","ciclopirox","TOPICAL PRODUCTS","Y","4","orally","I'm not a doctor, I'm a data guru.","2"
"05-017","Clinical Site 05","05","40","M","Hispanic","Placebo","PLACEBO","Ongoing","2015-07-03","2016-05-10","313","Y","1","3","2016-04-08","281","2016-06-11","345","Myambutol","ethambutol","ANTI-INFECTIVE AGENTS","N","4","orally","I'm not a doctor, I'm a data guru.","3"
"05-018","Clinical Site 05","05","36","F","White","Treatment A","TRTA","Ongoing","2015-12-14","2016-09-12","274","Y","1",,,,,,,,,,,,,
"05-019","Clinical Site 05","05","42","F","Black","Placebo","PLACEBO","Ongoing","2015-05-13","2016-03-11","304","Y","1",,,,,,,,,,,,,
"05-020","Clinical Site 05","05","32","M","Other/Mixed","Treatment A","TRTA","Ongoing","2015-04-21","2015-09-22","155","Y","1","1","2015-05-12","22","2015-05-19","29","Lotensin","benazepril","HEART AND CIRCULATORY DRUGS","N","1","subcutaneously","I'm not a doctor, I'm a data guru.","1"
"05-020","Clinical Site 05","05","32","M","Other/Mixed","Treatment A","TRTA","Ongoing","2015-04-21","2015-09-22","155","Y","1","2","2015-10-07","170","2015-12-01","225","Phoslo","calcium acetate","GASTROINTESTINAL DRUGS","N","2","sublingually","I'm not a doctor, I'm a data guru.","2"
"05-021","Clinical Site 05","05","46","M","Other/Mixed","Treatment A","TRTA","Completed","2015-01-20","2016-01-14","360","Y","1","1","2015-02-10","22","2015-06-01","133","FACTIVE","gemifloxacin","ANTI-INFECTIVE AGENTS","N","1","topically","I'm not a doctor, I'm a data guru.","1"
"05-021","Clinical Site 05","05","46","M","Other/Mixed","Treatment A","TRTA","Completed","2015-01-20","2016-01-14","360","Y","1","2","2015-09-23","247","2015-10-25","279","Actigall","ursodiol","GASTROINTESTINAL DRUGS","Y","1","orally","I'm not a doctor, I'm a data guru.","2"
"05-021","Clinical Site 05","05","46","M","Other/Mixed","Treatment A","TRTA","Completed","2015-01-20","2016-01-14","360","Y","1","3","2016-01-08","354","2016-01-17","363","ExELON patches","rivastigmine","CENTRAL NERVOUS SYSTEM DRUGS","Y","1","orally","I'm not a doctor, I'm a data guru.","3"
"05-022","Clinical Site 05","05","29","F","Black","Placebo","PLACEBO","Ongoing","2015-01-10","2015-08-16","219","Y","1",,,,,,,,,,,,,
"05-023","Clinical Site 05","05","49","M","Hispanic","Treatment A","TRTA","Ongoing","2015-08-15","2016-05-10","270","Y","1",,,,,,,,,,,,,
"05-024","Clinical Site 05","05","54","M","White","Treatment A","TRTA","Ongoing","2015-11-17","2016-04-15","151","Y","1","1","2016-01-29","74","2016-05-14","180","Loestrin","norethindrone acetate/ethinyl estradiol","HORMONES, DIABETES AND RELATED DRUGS","N","1","orally","I'm not a doctor, I'm a data guru.","1"
"05-024","Clinical Site 05","05","54","M","White","Treatment A","TRTA","Ongoing","2015-11-17","2016-04-15","151","Y","1","2","2016-07-17","244","2016-09-08","297","AVODART","dutasteride","GENITOURINARY DRUGS","Y","2","intravenously","I'm not a doctor, I'm a data guru.","2"
"05-025","Clinical Site 05","05","54","M","White","Treatment A","TRTA","Ongoing","2015-02-28","2015-06-13","106","Y","1","1","2015-04-10","42","2015-09-10","195","TRIGLIDE","fenofibrate","HEART AND CIRCULATORY DRUGS","N","5","orally","I'm not a doctor, I'm a data guru.","1"
"05-026","Clinical Site 05","05","32","M","Black","Placebo","PLACEBO","Ongoing","2015-01-26","2015-10-20","268","Y","1",,,,,,,,,,,,,
"05-027","Clinical Site 05","05","28","F","Hispanic","Treatment A","TRTA","Ongoing","2015-05-28","2016-04-29","338","Y","1","1","2015-08-12","77","2015-11-04","161","SINGuLAIR","montelukast","RESPIRATORY AGENTS","N","1","orally","I'm not a doctor, I'm a data guru.","1"
"05-027","Clinical Site 05","05","28","F","Hispanic","Treatment A","TRTA","Ongoing","2015-05-28","2016-04-29","338","Y","1","2","2015-10-12","138","2015-11-21","178","AZOPT","brinzolamide","TOPICAL PRODUCTS","Y","2","orally","I'm not a doctor, I'm a data guru.","2"
"05-028","Clinical Site 05","05","42","M","Other/Mixed","Treatment A","TRTA","Ongoing","2015-12-01","2016-09-28","303","Y","1",,,,,,,,,,,,,
"05-029","Clinical Site 05","05","35","M","White","Placebo","PLACEBO","Ongoing","2015-10-02","2015-12-31","91","Y","1","1","2015-10-28","27","2016-05-19","231","CAPTOPRIL/HYDROCHLOROTHIAZIDE","captopril/hydrochlorothiazide","HEART AND CIRCULATORY DRUGS","N","3","orally","I'm not a doctor, I'm a data guru.","1"
"05-029","Clinical Site 05","05","35","M","White","Placebo","PLACEBO","Ongoing","2015-10-02","2015-12-31","91","Y","1","2","2016-04-28","210","2016-04-29","211","xanax","alprazolam","CENTRAL NERVOUS SYSTEM DRUGS","N","5","sublingually","I'm not a doctor, I'm a data guru.","2"
"05-029","Clinical Site 05","05","35","M","White","Placebo","PLACEBO","Ongoing","2015-10-02","2015-12-31","91","Y","1","3","2016-07-03","276","2016-08-04","308","VIVELLE-DOT","estradiol","HORMONES, DIABETES AND RELATED DRUGS","Y","2","orally","I'm not a doctor, I'm a data guru.","3"
"05-029","Clinical Site 05","05","35","M","White","Placebo","PLACEBO","Ongoing","2015-10-02","2015-12-31","91","Y","1","4","2016-08-24","328","2016-08-25","329","ALBENZA","albendazole","ANTI-INFECTIVE AGENTS","Y","3","intravenously","I'm not a doctor, I'm a data guru.","4"
"05-030","Clinical Site 05","05","23","F","Hispanic","Treatment A","TRTA","Ongoing","2015-11-13","2016-06-06","207","Y","1","1","2016-01-01","50","2016-10-27","350","FML","fluorometholone susp","TOPICAL PRODUCTS","N","2","orally","I'm not a doctor, I'm a data guru.","1"
"05-030","Clinical Site 05","05","23","F","Hispanic","Treatment A","TRTA","Ongoing","2015-11-13","2016-06-06","207","Y","1","2","2016-06-22","223","2016-10-01","324","Mestinon","pyridostigmine tabs","NEUROMUSCULAR DRUGS","Y","1","orally","I'm not a doctor, I'm a data guru.","2"
"05-030","Clinical Site 05","05","23","F","Hispanic","Treatment A","TRTA","Ongoing","2015-11-13","2016-06-06","207","Y","1","3","2016-09-30","323","2016-10-22","345","NOVOLIN N","insulin isophane","HORMONES, DIABETES AND RELATED DRUGS","Y","5","orally","I'm not a doctor, I'm a data guru.","3"
