"USUBJID","SITE","SITEID","AGE","SEX","RACE","ARM","ARMCD","SBJTSTAT","RFSTDTC","RFENDTC","RFENDY","SAFFL","SAFFN","RANDDT","RANDDY","COMPLDT","COMPLDY","ANYAEFL","ANYCMFL","AVISIT","AVISITN","ADT","ADY","PARAMCAT","PARAM","AVAL","ANRLO","ANRHI"
"01-001","Site 01","01","30","F","Other/Mixed","Placebo","PLACEBO","Early Termination","2015-05-21","2015-05-26","6","Y","1","2015-07-17","58","2016-05-09","355","Y","Y","Screening","0","2015-05-21","1","Blood","Platelet count (x 109/L)","73.9216799073289","150","350"
"01-001","Site 01","01","30","F","Other/Mixed","Placebo","PLACEBO","Early Termination","2015-05-21","2015-05-26","6","Y","1","2015-07-17","58","2016-05-09","355","Y","Y","Screening","0","2015-05-21","1","Blood","RBC count (x 1012 cells/L)","5.73306802044415","4.2","5.9"
"01-001","Site 01","01","30","F","Other/Mixed","Placebo","PLACEBO","Early Termination","2015-05-21","2015-05-26","6","Y","1","2015-07-17","58","2016-05-09","355","Y","Y","Screening","0","2015-05-21","1","Blood","WBC count (x 109 cells/L)","5.36456259077355","4.5","11"
"01-001","Site 01","01","30","F","Other/Mixed","Placebo","PLACEBO","Early Termination","2015-05-21","2015-05-26","6","Y","1","2015-07-17","58","2016-05-09","355","Y","Y","Screening","0","2015-05-21","1","Serum","Albumin (g/L)","48.8951754817963","35","55"
"01-001","Site 01","01","30","F","Other/Mixed","Placebo","PLACEBO","Early Termination","2015-05-21","2015-05-26","6","Y","1","2015-07-17","58","2016-05-09","355","Y","Y","Screening","0","2015-05-21","1","Serum","Alkaline phosphatase (ALP) (μkat/L)","0.353441557756458","0.5","1.5"
"01-001","Site 01","01","30","F","Other/Mixed","Placebo","PLACEBO","Early Termination","2015-05-21","2015-05-26","6","Y","1","2015-07-17","58","2016-05-09","355","Y","Y","Screening","0","2015-05-21","1","Serum","Aminotransferase, alanine (ALT) (pkat/L)","0","0","0.58"
"01-001","Site 01","01","30","F","Other/Mixed","Placebo","PLACEBO","Early Termination","2015-05-21","2015-05-26","6","Y","1","2015-07-17","58","2016-05-09","355","Y","Y","Screening","0","2015-05-21","1","Serum","Aminotransferase, aspartate (AST) (pkat/L)","0.230454585959809","0","0.58"
"01-001","Site 01","01","30","F","Other/Mixed","Placebo","PLACEBO","Early Termination","2015-05-21","2015-05-26","6","Y","1","2015-07-17","58","2016-05-09","355","Y","Y","Screening","0","2015-05-21","1","Serum","Calcium (mmol/L)","2.40364284621797","2.2","2.6"
"01-001","Site 01","01","30","F","Other/Mixed","Placebo","PLACEBO","Early Termination","2015-05-21","2015-05-26","6","Y","1","2015-07-17","58","2016-05-09","355","Y","Y","Screening","0","2015-05-21","1","Serum","Chloride (mmol/L)","101.977738128482","98","106"
"01-001","Site 01","01","30","F","Other/Mixed","Placebo","PLACEBO","Early Termination","2015-05-21","2015-05-26","6","Y","1","2015-07-17","58","2016-05-09","355","Y","Y","Screening","0","2015-05-21","1","Serum","Creatinine (μmol/L)","54.9522524666975","61.9","115"
"01-001","Site 01","01","30","F","Other/Mixed","Placebo","PLACEBO","Early Termination","2015-05-21","2015-05-26","6","Y","1","2015-07-17","58","2016-05-09","355","Y","Y","Screening","0","2015-05-21","1","Serum","Direct Bilirubin (μmol/L)","3.17702878376026","0","5.1"
"01-001","Site 01","01","30","F","Other/Mixed","Placebo","PLACEBO","Early Termination","2015-05-21","2015-05-26","6","Y","1","2015-07-17","58","2016-05-09","355","Y","Y","Screening","0","2015-05-21","1","Serum","IgE (mg/L)","0.0607685666438798","0.1","0.4"
"01-001","Site 01","01","30","F","Other/Mixed","Placebo","PLACEBO","Early Termination","2015-05-21","2015-05-26","6","Y","1","2015-07-17","58","2016-05-09","355","Y","Y","Screening","0","2015-05-21","1","Serum","Magnesium (mmol/L)","0.671342726996378","0.62","0.99"
"01-001","Site 01","01","30","F","Other/Mixed","Placebo","PLACEBO","Early Termination","2015-05-21","2015-05-26","6","Y","1","2015-07-17","58","2016-05-09","355","Y","Y","Screening","0","2015-05-21","1","Serum","Potassium (mmol/L)","2.9714672889195","3.5","5"
"01-001","Site 01","01","30","F","Other/Mixed","Placebo","PLACEBO","Early Termination","2015-05-21","2015-05-26","6","Y","1","2015-07-17","58","2016-05-09","355","Y","Y","Screening","0","2015-05-21","1","Serum","Sodium (mmol/L)","144.559968626885","136","145"
"01-001","Site 01","01","30","F","Other/Mixed","Placebo","PLACEBO","Early Termination","2015-05-21","2015-05-26","6","Y","1","2015-07-17","58","2016-05-09","355","Y","Y","Screening","0","2015-05-21","1","Serum","Total Bilirubin (μmol/L)","28.7068580552978","5.1","20.5"
"01-001","Site 01","01","30","F","Other/Mixed","Placebo","PLACEBO","Early Termination","2015-05-21","2015-05-26","6","Y","1","2015-07-17","58","2016-05-09","355","Y","Y","Early Termination","6.9","2015-05-26","6","Blood","Platelet count (x 109/L)","295.133147295951","150","350"
"01-001","Site 01","01","30","F","Other/Mixed","Placebo","PLACEBO","Early Termination","2015-05-21","2015-05-26","6","Y","1","2015-07-17","58","2016-05-09","355","Y","Y","Early Termination","6.9","2015-05-26","6","Blood","RBC count (x 1012 cells/L)","4.52362139757257","4.2","5.9"
"01-001","Site 01","01","30","F","Other/Mixed","Placebo","PLACEBO","Early Termination","2015-05-21","2015-05-26","6","Y","1","2015-07-17","58","2016-05-09","355","Y","Y","Early Termination","6.9","2015-05-26","6","Blood","WBC count (x 109 cells/L)","9.78481972051961","4.5","11"
"01-001","Site 01","01","30","F","Other/Mixed","Placebo","PLACEBO","Early Termination","2015-05-21","2015-05-26","6","Y","1","2015-07-17","58","2016-05-09","355","Y","Y","Early Termination","6.9","2015-05-26","6","Serum","Albumin (g/L)","53.6771105731966","35","55"
"01-001","Site 01","01","30","F","Other/Mixed","Placebo","PLACEBO","Early Termination","2015-05-21","2015-05-26","6","Y","1","2015-07-17","58","2016-05-09","355","Y","Y","Early Termination","6.9","2015-05-26","6","Serum","Alkaline phosphatase (ALP) (μkat/L)","0.617051970163285","0.5","1.5"
"01-001","Site 01","01","30","F","Other/Mixed","Placebo","PLACEBO","Early Termination","2015-05-21","2015-05-26","6","Y","1","2015-07-17","58","2016-05-09","355","Y","Y","Early Termination","6.9","2015-05-26","6","Serum","Aminotransferase, alanine (ALT) (pkat/L)","0.300926047510991","0","0.58"
"01-001","Site 01","01","30","F","Other/Mixed","Placebo","PLACEBO","Early Termination","2015-05-21","2015-05-26","6","Y","1","2015-07-17","58","2016-05-09","355","Y","Y","Early Termination","6.9","2015-05-26","6","Serum","Aminotransferase, aspartate (AST) (pkat/L)","0","0","0.58"
"01-001","Site 01","01","30","F","Other/Mixed","Placebo","PLACEBO","Early Termination","2015-05-21","2015-05-26","6","Y","1","2015-07-17","58","2016-05-09","355","Y","Y","Early Termination","6.9","2015-05-26","6","Serum","Calcium (mmol/L)","2.747644933767","2.2","2.6"
"01-001","Site 01","01","30","F","Other/Mixed","Placebo","PLACEBO","Early Termination","2015-05-21","2015-05-26","6","Y","1","2015-07-17","58","2016-05-09","355","Y","Y","Early Termination","6.9","2015-05-26","6","Serum","Chloride (mmol/L)","109.737192651894","98","106"
"01-001","Site 01","01","30","F","Other/Mixed","Placebo","PLACEBO","Early Termination","2015-05-21","2015-05-26","6","Y","1","2015-07-17","58","2016-05-09","355","Y","Y","Early Termination","6.9","2015-05-26","6","Serum","Creatinine (μmol/L)","31.7473259113718","61.9","115"
"01-001","Site 01","01","30","F","Other/Mixed","Placebo","PLACEBO","Early Termination","2015-05-21","2015-05-26","6","Y","1","2015-07-17","58","2016-05-09","355","Y","Y","Early Termination","6.9","2015-05-26","6","Serum","Direct Bilirubin (μmol/L)","1.83234574527008","0","5.1"
"01-001","Site 01","01","30","F","Other/Mixed","Placebo","PLACEBO","Early Termination","2015-05-21","2015-05-26","6","Y","1","2015-07-17","58","2016-05-09","355","Y","Y","Early Termination","6.9","2015-05-26","6","Serum","IgE (mg/L)","0.148341857697348","0.1","0.4"
"01-001","Site 01","01","30","F","Other/Mixed","Placebo","PLACEBO","Early Termination","2015-05-21","2015-05-26","6","Y","1","2015-07-17","58","2016-05-09","355","Y","Y","Early Termination","6.9","2015-05-26","6","Serum","Magnesium (mmol/L)","0.915498917650744","0.62","0.99"
"01-001","Site 01","01","30","F","Other/Mixed","Placebo","PLACEBO","Early Termination","2015-05-21","2015-05-26","6","Y","1","2015-07-17","58","2016-05-09","355","Y","Y","Early Termination","6.9","2015-05-26","6","Serum","Potassium (mmol/L)","4.04035321731168","3.5","5"
"01-001","Site 01","01","30","F","Other/Mixed","Placebo","PLACEBO","Early Termination","2015-05-21","2015-05-26","6","Y","1","2015-07-17","58","2016-05-09","355","Y","Y","Early Termination","6.9","2015-05-26","6","Serum","Sodium (mmol/L)","144.904381724821","136","145"
"01-001","Site 01","01","30","F","Other/Mixed","Placebo","PLACEBO","Early Termination","2015-05-21","2015-05-26","6","Y","1","2015-07-17","58","2016-05-09","355","Y","Y","Early Termination","6.9","2015-05-26","6","Serum","Total Bilirubin (μmol/L)","18.1608605968951","5.1","20.5"
"01-002","Site 01","01","24","F","Black","Treatment A","TRTA","Ongoing","2015-05-30","2015-11-09","164","Y","1","2015-07-29","61","2016-05-29","366","Y","N","Screening","0","2015-05-30","1","Blood","Platelet count (x 109/L)","210.526405581847","150","350"
"01-002","Site 01","01","24","F","Black","Treatment A","TRTA","Ongoing","2015-05-30","2015-11-09","164","Y","1","2015-07-29","61","2016-05-29","366","Y","N","Screening","0","2015-05-30","1","Blood","RBC count (x 1012 cells/L)","3.89772984219502","4.2","5.9"
"01-002","Site 01","01","24","F","Black","Treatment A","TRTA","Ongoing","2015-05-30","2015-11-09","164","Y","1","2015-07-29","61","2016-05-29","366","Y","N","Screening","0","2015-05-30","1","Blood","WBC count (x 109 cells/L)","","4.5","11"
"01-002","Site 01","01","24","F","Black","Treatment A","TRTA","Ongoing","2015-05-30","2015-11-09","164","Y","1","2015-07-29","61","2016-05-29","366","Y","N","Screening","0","2015-05-30","1","Serum","Albumin (g/L)","50.6477376065677","35","55"
"01-002","Site 01","01","24","F","Black","Treatment A","TRTA","Ongoing","2015-05-30","2015-11-09","164","Y","1","2015-07-29","61","2016-05-29","366","Y","N","Screening","0","2015-05-30","1","Serum","Alkaline phosphatase (ALP) (μkat/L)","0.96943733296846","0.5","1.5"
"01-002","Site 01","01","24","F","Black","Treatment A","TRTA","Ongoing","2015-05-30","2015-11-09","164","Y","1","2015-07-29","61","2016-05-29","366","Y","N","Screening","0","2015-05-30","1","Serum","Aminotransferase, alanine (ALT) (pkat/L)","0.0987605029988369","0","0.58"
"01-002","Site 01","01","24","F","Black","Treatment A","TRTA","Ongoing","2015-05-30","2015-11-09","164","Y","1","2015-07-29","61","2016-05-29","366","Y","N","Screening","0","2015-05-30","1","Serum","Aminotransferase, aspartate (AST) (pkat/L)","0.398684801032776","0","0.58"
"01-002","Site 01","01","24","F","Black","Treatment A","TRTA","Ongoing","2015-05-30","2015-11-09","164","Y","1","2015-07-29","61","2016-05-29","366","Y","N","Screening","0","2015-05-30","1","Serum","Calcium (mmol/L)","2.68664699718718","2.2","2.6"
"01-002","Site 01","01","24","F","Black","Treatment A","TRTA","Ongoing","2015-05-30","2015-11-09","164","Y","1","2015-07-29","61","2016-05-29","366","Y","N","Screening","0","2015-05-30","1","Serum","Chloride (mmol/L)","101.775787846845","98","106"
"01-002","Site 01","01","24","F","Black","Treatment A","TRTA","Ongoing","2015-05-30","2015-11-09","164","Y","1","2015-07-29","61","2016-05-29","366","Y","N","Screening","0","2015-05-30","1","Serum","Creatinine (μmol/L)","63.5098720681291","61.9","115"
"01-002","Site 01","01","24","F","Black","Treatment A","TRTA","Ongoing","2015-05-30","2015-11-09","164","Y","1","2015-07-29","61","2016-05-29","366","Y","N","Screening","0","2015-05-30","1","Serum","Direct Bilirubin (μmol/L)","0.117785498221554","0","5.1"
"01-002","Site 01","01","24","F","Black","Treatment A","TRTA","Ongoing","2015-05-30","2015-11-09","164","Y","1","2015-07-29","61","2016-05-29","366","Y","N","Screening","0","2015-05-30","1","Serum","IgE (mg/L)","0.282980834483","0.1","0.4"
"01-002","Site 01","01","24","F","Black","Treatment A","TRTA","Ongoing","2015-05-30","2015-11-09","164","Y","1","2015-07-29","61","2016-05-29","366","Y","N","Screening","0","2015-05-30","1","Serum","Magnesium (mmol/L)","1.06003938274269","0.62","0.99"
"01-002","Site 01","01","24","F","Black","Treatment A","TRTA","Ongoing","2015-05-30","2015-11-09","164","Y","1","2015-07-29","61","2016-05-29","366","Y","N","Screening","0","2015-05-30","1","Serum","Potassium (mmol/L)","4.66593579558087","3.5","5"
"01-002","Site 01","01","24","F","Black","Treatment A","TRTA","Ongoing","2015-05-30","2015-11-09","164","Y","1","2015-07-29","61","2016-05-29","366","Y","N","Screening","0","2015-05-30","1","Serum","Sodium (mmol/L)","144.038960616888","136","145"
"01-002","Site 01","01","24","F","Black","Treatment A","TRTA","Ongoing","2015-05-30","2015-11-09","164","Y","1","2015-07-29","61","2016-05-29","366","Y","N","Screening","0","2015-05-30","1","Serum","Total Bilirubin (μmol/L)","14.4584676078576","5.1","20.5"
"01-002","Site 01","01","24","F","Black","Treatment A","TRTA","Ongoing","2015-05-30","2015-11-09","164","Y","1","2015-07-29","61","2016-05-29","366","Y","N","Visit 1","1","2015-07-29","61","Blood","Platelet count (x 109/L)","379.422736215712","150","350"
"01-002","Site 01","01","24","F","Black","Treatment A","TRTA","Ongoing","2015-05-30","2015-11-09","164","Y","1","2015-07-29","61","2016-05-29","366","Y","N","Visit 1","1","2015-07-29","61","Blood","RBC count (x 1012 cells/L)","5.29357870243644","4.2","5.9"
"01-002","Site 01","01","24","F","Black","Treatment A","TRTA","Ongoing","2015-05-30","2015-11-09","164","Y","1","2015-07-29","61","2016-05-29","366","Y","N","Visit 1","1","2015-07-29","61","Blood","WBC count (x 109 cells/L)","1.08220907759321","4.5","11"
"01-002","Site 01","01","24","F","Black","Treatment A","TRTA","Ongoing","2015-05-30","2015-11-09","164","Y","1","2015-07-29","61","2016-05-29","366","Y","N","Visit 1","1","2015-07-29","61","Serum","Albumin (g/L)","40.9352865412019","35","55"
"01-002","Site 01","01","24","F","Black","Treatment A","TRTA","Ongoing","2015-05-30","2015-11-09","164","Y","1","2015-07-29","61","2016-05-29","366","Y","N","Visit 1","1","2015-07-29","61","Serum","Alkaline phosphatase (ALP) (μkat/L)","1.03753773086815","0.5","1.5"
"01-002","Site 01","01","24","F","Black","Treatment A","TRTA","Ongoing","2015-05-30","2015-11-09","164","Y","1","2015-07-29","61","2016-05-29","366","Y","N","Visit 1","1","2015-07-29","61","Serum","Aminotransferase, alanine (ALT) (pkat/L)","0","0","0.58"
"01-002","Site 01","01","24","F","Black","Treatment A","TRTA","Ongoing","2015-05-30","2015-11-09","164","Y","1","2015-07-29","61","2016-05-29","366","Y","N","Visit 1","1","2015-07-29","61","Serum","Aminotransferase, aspartate (AST) (pkat/L)","0","0","0.58"
"01-002","Site 01","01","24","F","Black","Treatment A","TRTA","Ongoing","2015-05-30","2015-11-09","164","Y","1","2015-07-29","61","2016-05-29","366","Y","N","Visit 1","1","2015-07-29","61","Serum","Calcium (mmol/L)","","2.2","2.6"
"01-002","Site 01","01","24","F","Black","Treatment A","TRTA","Ongoing","2015-05-30","2015-11-09","164","Y","1","2015-07-29","61","2016-05-29","366","Y","N","Visit 1","1","2015-07-29","61","Serum","Chloride (mmol/L)","102.058360751085","98","106"
"01-002","Site 01","01","24","F","Black","Treatment A","TRTA","Ongoing","2015-05-30","2015-11-09","164","Y","1","2015-07-29","61","2016-05-29","366","Y","N","Visit 1","1","2015-07-29","61","Serum","Creatinine (μmol/L)","83.7500879031514","61.9","115"
"01-002","Site 01","01","24","F","Black","Treatment A","TRTA","Ongoing","2015-05-30","2015-11-09","164","Y","1","2015-07-29","61","2016-05-29","366","Y","N","Visit 1","1","2015-07-29","61","Serum","Direct Bilirubin (μmol/L)","1.93316006105932","0","5.1"
"01-002","Site 01","01","24","F","Black","Treatment A","TRTA","Ongoing","2015-05-30","2015-11-09","164","Y","1","2015-07-29","61","2016-05-29","366","Y","N","Visit 1","1","2015-07-29","61","Serum","IgE (mg/L)","0.267821304243956","0.1","0.4"
"01-002","Site 01","01","24","F","Black","Treatment A","TRTA","Ongoing","2015-05-30","2015-11-09","164","Y","1","2015-07-29","61","2016-05-29","366","Y","N","Visit 1","1","2015-07-29","61","Serum","Magnesium (mmol/L)","0.66411072342421","0.62","0.99"
"01-002","Site 01","01","24","F","Black","Treatment A","TRTA","Ongoing","2015-05-30","2015-11-09","164","Y","1","2015-07-29","61","2016-05-29","366","Y","N","Visit 1","1","2015-07-29","61","Serum","Potassium (mmol/L)","5.14411601922635","3.5","5"
"01-002","Site 01","01","24","F","Black","Treatment A","TRTA","Ongoing","2015-05-30","2015-11-09","164","Y","1","2015-07-29","61","2016-05-29","366","Y","N","Visit 1","1","2015-07-29","61","Serum","Sodium (mmol/L)","128.697698282931","136","145"
"01-002","Site 01","01","24","F","Black","Treatment A","TRTA","Ongoing","2015-05-30","2015-11-09","164","Y","1","2015-07-29","61","2016-05-29","366","Y","N","Visit 1","1","2015-07-29","61","Serum","Total Bilirubin (μmol/L)","22.8563889839518","5.1","20.5"
"01-002","Site 01","01","24","F","Black","Treatment A","TRTA","Ongoing","2015-05-30","2015-11-09","164","Y","1","2015-07-29","61","2016-05-29","366","Y","N","Visit 2","2","2015-09-17","111","Blood","Platelet count (x 109/L)","266.956197066623","150","350"
"01-002","Site 01","01","24","F","Black","Treatment A","TRTA","Ongoing","2015-05-30","2015-11-09","164","Y","1","2015-07-29","61","2016-05-29","366","Y","N","Visit 2","2","2015-09-17","111","Blood","RBC count (x 1012 cells/L)","5.30449288631539","4.2","5.9"
"01-002","Site 01","01","24","F","Black","Treatment A","TRTA","Ongoing","2015-05-30","2015-11-09","164","Y","1","2015-07-29","61","2016-05-29","366","Y","N","Visit 2","2","2015-09-17","111","Blood","WBC count (x 109 cells/L)","9.80758435683516","4.5","11"
"01-002","Site 01","01","24","F","Black","Treatment A","TRTA","Ongoing","2015-05-30","2015-11-09","164","Y","1","2015-07-29","61","2016-05-29","366","Y","N","Visit 2","2","2015-09-17","111","Serum","Albumin (g/L)","49.7808297136377","35","55"
"01-002","Site 01","01","24","F","Black","Treatment A","TRTA","Ongoing","2015-05-30","2015-11-09","164","Y","1","2015-07-29","61","2016-05-29","366","Y","N","Visit 2","2","2015-09-17","111","Serum","Alkaline phosphatase (ALP) (μkat/L)","0.904530281533516","0.5","1.5"
"01-002","Site 01","01","24","F","Black","Treatment A","TRTA","Ongoing","2015-05-30","2015-11-09","164","Y","1","2015-07-29","61","2016-05-29","366","Y","N","Visit 2","2","2015-09-17","111","Serum","Aminotransferase, alanine (ALT) (pkat/L)","0.419277490110206","0","0.58"
"01-002","Site 01","01","24","F","Black","Treatment A","TRTA","Ongoing","2015-05-30","2015-11-09","164","Y","1","2015-07-29","61","2016-05-29","366","Y","N","Visit 2","2","2015-09-17","111","Serum","Aminotransferase, aspartate (AST) (pkat/L)","","0","0.58"
"01-002","Site 01","01","24","F","Black","Treatment A","TRTA","Ongoing","2015-05-30","2015-11-09","164","Y","1","2015-07-29","61","2016-05-29","366","Y","N","Visit 2","2","2015-09-17","111","Serum","Calcium (mmol/L)","2.39381305408797","2.2","2.6"
"01-002","Site 01","01","24","F","Black","Treatment A","TRTA","Ongoing","2015-05-30","2015-11-09","164","Y","1","2015-07-29","61","2016-05-29","366","Y","N","Visit 2","2","2015-09-17","111","Serum","Chloride (mmol/L)","105.164704547483","98","106"
"01-002","Site 01","01","24","F","Black","Treatment A","TRTA","Ongoing","2015-05-30","2015-11-09","164","Y","1","2015-07-29","61","2016-05-29","366","Y","N","Visit 2","2","2015-09-17","111","Serum","Creatinine (μmol/L)","72.1618402191612","61.9","115"
"01-002","Site 01","01","24","F","Black","Treatment A","TRTA","Ongoing","2015-05-30","2015-11-09","164","Y","1","2015-07-29","61","2016-05-29","366","Y","N","Visit 2","2","2015-09-17","111","Serum","Direct Bilirubin (μmol/L)","1.2215754309901","0","5.1"
"01-002","Site 01","01","24","F","Black","Treatment A","TRTA","Ongoing","2015-05-30","2015-11-09","164","Y","1","2015-07-29","61","2016-05-29","366","Y","N","Visit 2","2","2015-09-17","111","Serum","IgE (mg/L)","0.362410726928693","0.1","0.4"
"01-002","Site 01","01","24","F","Black","Treatment A","TRTA","Ongoing","2015-05-30","2015-11-09","164","Y","1","2015-07-29","61","2016-05-29","366","Y","N","Visit 2","2","2015-09-17","111","Serum","Magnesium (mmol/L)","0.859837302250049","0.62","0.99"
"01-002","Site 01","01","24","F","Black","Treatment A","TRTA","Ongoing","2015-05-30","2015-11-09","164","Y","1","2015-07-29","61","2016-05-29","366","Y","N","Visit 2","2","2015-09-17","111","Serum","Potassium (mmol/L)","3.1431655630325","3.5","5"
"01-002","Site 01","01","24","F","Black","Treatment A","TRTA","Ongoing","2015-05-30","2015-11-09","164","Y","1","2015-07-29","61","2016-05-29","366","Y","N","Visit 2","2","2015-09-17","111","Serum","Sodium (mmol/L)","140.318374215466","136","145"
"01-002","Site 01","01","24","F","Black","Treatment A","TRTA","Ongoing","2015-05-30","2015-11-09","164","Y","1","2015-07-29","61","2016-05-29","366","Y","N","Visit 2","2","2015-09-17","111","Serum","Total Bilirubin (μmol/L)","3.45226470818673","5.1","20.5"
"01-003","Site 01","01","43","F","Hispanic","Placebo","PLACEBO","Ongoing","2015-08-13","2016-02-23","195","Y","1","2015-10-04","53","2016-08-18","372","Y","Y","Screening","0","2015-08-13","1","Blood","Platelet count (x 109/L)","411.559540660714","150","350"
"01-003","Site 01","01","43","F","Hispanic","Placebo","PLACEBO","Ongoing","2015-08-13","2016-02-23","195","Y","1","2015-10-04","53","2016-08-18","372","Y","Y","Screening","0","2015-08-13","1","Blood","RBC count (x 1012 cells/L)","3.76575681268297","4.2","5.9"
"01-003","Site 01","01","43","F","Hispanic","Placebo","PLACEBO","Ongoing","2015-08-13","2016-02-23","195","Y","1","2015-10-04","53","2016-08-18","372","Y","Y","Screening","0","2015-08-13","1","Blood","WBC count (x 109 cells/L)","11.8172985497157","4.5","11"
"01-003","Site 01","01","43","F","Hispanic","Placebo","PLACEBO","Ongoing","2015-08-13","2016-02-23","195","Y","1","2015-10-04","53","2016-08-18","372","Y","Y","Screening","0","2015-08-13","1","Serum","Albumin (g/L)","42.9231432325227","35","55"
"01-003","Site 01","01","43","F","Hispanic","Placebo","PLACEBO","Ongoing","2015-08-13","2016-02-23","195","Y","1","2015-10-04","53","2016-08-18","372","Y","Y","Screening","0","2015-08-13","1","Serum","Alkaline phosphatase (ALP) (μkat/L)","1.27026248970029","0.5","1.5"
"01-003","Site 01","01","43","F","Hispanic","Placebo","PLACEBO","Ongoing","2015-08-13","2016-02-23","195","Y","1","2015-10-04","53","2016-08-18","372","Y","Y","Screening","0","2015-08-13","1","Serum","Aminotransferase, alanine (ALT) (pkat/L)","0.524351713432945","0","0.58"
"01-003","Site 01","01","43","F","Hispanic","Placebo","PLACEBO","Ongoing","2015-08-13","2016-02-23","195","Y","1","2015-10-04","53","2016-08-18","372","Y","Y","Screening","0","2015-08-13","1","Serum","Aminotransferase, aspartate (AST) (pkat/L)","0.357285727530329","0","0.58"
"01-003","Site 01","01","43","F","Hispanic","Placebo","PLACEBO","Ongoing","2015-08-13","2016-02-23","195","Y","1","2015-10-04","53","2016-08-18","372","Y","Y","Screening","0","2015-08-13","1","Serum","Calcium (mmol/L)","","2.2","2.6"
"01-003","Site 01","01","43","F","Hispanic","Placebo","PLACEBO","Ongoing","2015-08-13","2016-02-23","195","Y","1","2015-10-04","53","2016-08-18","372","Y","Y","Screening","0","2015-08-13","1","Serum","Chloride (mmol/L)","102.070454802248","98","106"
"01-003","Site 01","01","43","F","Hispanic","Placebo","PLACEBO","Ongoing","2015-08-13","2016-02-23","195","Y","1","2015-10-04","53","2016-08-18","372","Y","Y","Screening","0","2015-08-13","1","Serum","Creatinine (μmol/L)","68.9151216120385","61.9","115"
"01-003","Site 01","01","43","F","Hispanic","Placebo","PLACEBO","Ongoing","2015-08-13","2016-02-23","195","Y","1","2015-10-04","53","2016-08-18","372","Y","Y","Screening","0","2015-08-13","1","Serum","Direct Bilirubin (μmol/L)","4.90346160027636","0","5.1"
"01-003","Site 01","01","43","F","Hispanic","Placebo","PLACEBO","Ongoing","2015-08-13","2016-02-23","195","Y","1","2015-10-04","53","2016-08-18","372","Y","Y","Screening","0","2015-08-13","1","Serum","IgE (mg/L)","0.483463217915164","0.1","0.4"
"01-003","Site 01","01","43","F","Hispanic","Placebo","PLACEBO","Ongoing","2015-08-13","2016-02-23","195","Y","1","2015-10-04","53","2016-08-18","372","Y","Y","Screening","0","2015-08-13","1","Serum","Magnesium (mmol/L)","0.580954072233235","0.62","0.99"
"01-003","Site 01","01","43","F","Hispanic","Placebo","PLACEBO","Ongoing","2015-08-13","2016-02-23","195","Y","1","2015-10-04","53","2016-08-18","372","Y","Y","Screening","0","2015-08-13","1","Serum","Potassium (mmol/L)","4.80061009624532","3.5","5"
"01-003","Site 01","01","43","F","Hispanic","Placebo","PLACEBO","Ongoing","2015-08-13","2016-02-23","195","Y","1","2015-10-04","53","2016-08-18","372","Y","Y","Screening","0","2015-08-13","1","Serum","Sodium (mmol/L)","142.840314866839","136","145"
"01-003","Site 01","01","43","F","Hispanic","Placebo","PLACEBO","Ongoing","2015-08-13","2016-02-23","195","Y","1","2015-10-04","53","2016-08-18","372","Y","Y","Screening","0","2015-08-13","1","Serum","Total Bilirubin (μmol/L)","19.1554069127278","5.1","20.5"
"01-003","Site 01","01","43","F","Hispanic","Placebo","PLACEBO","Ongoing","2015-08-13","2016-02-23","195","Y","1","2015-10-04","53","2016-08-18","372","Y","Y","Visit 1","1","2015-10-04","53","Blood","Platelet count (x 109/L)","103.89990587582","150","350"
"01-003","Site 01","01","43","F","Hispanic","Placebo","PLACEBO","Ongoing","2015-08-13","2016-02-23","195","Y","1","2015-10-04","53","2016-08-18","372","Y","Y","Visit 1","1","2015-10-04","53","Blood","RBC count (x 1012 cells/L)","5.28752266880987","4.2","5.9"
"01-003","Site 01","01","43","F","Hispanic","Placebo","PLACEBO","Ongoing","2015-08-13","2016-02-23","195","Y","1","2015-10-04","53","2016-08-18","372","Y","Y","Visit 1","1","2015-10-04","53","Blood","WBC count (x 109 cells/L)","4.92069593003557","4.5","11"
"01-003","Site 01","01","43","F","Hispanic","Placebo","PLACEBO","Ongoing","2015-08-13","2016-02-23","195","Y","1","2015-10-04","53","2016-08-18","372","Y","Y","Visit 1","1","2015-10-04","53","Serum","Albumin (g/L)","40.4973596954642","35","55"
"01-003","Site 01","01","43","F","Hispanic","Placebo","PLACEBO","Ongoing","2015-08-13","2016-02-23","195","Y","1","2015-10-04","53","2016-08-18","372","Y","Y","Visit 1","1","2015-10-04","53","Serum","Alkaline phosphatase (ALP) (μkat/L)","1.46652826950021","0.5","1.5"
"01-003","Site 01","01","43","F","Hispanic","Placebo","PLACEBO","Ongoing","2015-08-13","2016-02-23","195","Y","1","2015-10-04","53","2016-08-18","372","Y","Y","Visit 1","1","2015-10-04","53","Serum","Aminotransferase, alanine (ALT) (pkat/L)","0.556524116745351","0","0.58"
"01-003","Site 01","01","43","F","Hispanic","Placebo","PLACEBO","Ongoing","2015-08-13","2016-02-23","195","Y","1","2015-10-04","53","2016-08-18","372","Y","Y","Visit 1","1","2015-10-04","53","Serum","Aminotransferase, aspartate (AST) (pkat/L)","0","0","0.58"
"01-003","Site 01","01","43","F","Hispanic","Placebo","PLACEBO","Ongoing","2015-08-13","2016-02-23","195","Y","1","2015-10-04","53","2016-08-18","372","Y","Y","Visit 1","1","2015-10-04","53","Serum","Calcium (mmol/L)","","2.2","2.6"
"01-003","Site 01","01","43","F","Hispanic","Placebo","PLACEBO","Ongoing","2015-08-13","2016-02-23","195","Y","1","2015-10-04","53","2016-08-18","372","Y","Y","Visit 1","1","2015-10-04","53","Serum","Chloride (mmol/L)","92.7189184478615","98","106"
"01-003","Site 01","01","43","F","Hispanic","Placebo","PLACEBO","Ongoing","2015-08-13","2016-02-23","195","Y","1","2015-10-04","53","2016-08-18","372","Y","Y","Visit 1","1","2015-10-04","53","Serum","Creatinine (μmol/L)","67.0390265713637","61.9","115"
"01-003","Site 01","01","43","F","Hispanic","Placebo","PLACEBO","Ongoing","2015-08-13","2016-02-23","195","Y","1","2015-10-04","53","2016-08-18","372","Y","Y","Visit 1","1","2015-10-04","53","Serum","Direct Bilirubin (μmol/L)","3.16978772090776","0","5.1"
"01-003","Site 01","01","43","F","Hispanic","Placebo","PLACEBO","Ongoing","2015-08-13","2016-02-23","195","Y","1","2015-10-04","53","2016-08-18","372","Y","Y","Visit 1","1","2015-10-04","53","Serum","IgE (mg/L)","0.338095648167025","0.1","0.4"
"01-003","Site 01","01","43","F","Hispanic","Placebo","PLACEBO","Ongoing","2015-08-13","2016-02-23","195","Y","1","2015-10-04","53","2016-08-18","372","Y","Y","Visit 1","1","2015-10-04","53","Serum","Magnesium (mmol/L)","","0.62","0.99"
"01-003","Site 01","01","43","F","Hispanic","Placebo","PLACEBO","Ongoing","2015-08-13","2016-02-23","195","Y","1","2015-10-04","53","2016-08-18","372","Y","Y","Visit 1","1","2015-10-04","53","Serum","Potassium (mmol/L)","4.41529083870165","3.5","5"
"01-003","Site 01","01","43","F","Hispanic","Placebo","PLACEBO","Ongoing","2015-08-13","2016-02-23","195","Y","1","2015-10-04","53","2016-08-18","372","Y","Y","Visit 1","1","2015-10-04","53","Serum","Sodium (mmol/L)","139.064678138318","136","145"
"01-003","Site 01","01","43","F","Hispanic","Placebo","PLACEBO","Ongoing","2015-08-13","2016-02-23","195","Y","1","2015-10-04","53","2016-08-18","372","Y","Y","Visit 1","1","2015-10-04","53","Serum","Total Bilirubin (μmol/L)","28.6434683510413","5.1","20.5"
"01-003","Site 01","01","43","F","Hispanic","Placebo","PLACEBO","Ongoing","2015-08-13","2016-02-23","195","Y","1","2015-10-04","53","2016-08-18","372","Y","Y","Visit 2","2","2015-12-08","118","Blood","Platelet count (x 109/L)","303.03852367261","150","350"
"01-003","Site 01","01","43","F","Hispanic","Placebo","PLACEBO","Ongoing","2015-08-13","2016-02-23","195","Y","1","2015-10-04","53","2016-08-18","372","Y","Y","Visit 2","2","2015-12-08","118","Blood","RBC count (x 1012 cells/L)","4.89763352730128","4.2","5.9"
"01-003","Site 01","01","43","F","Hispanic","Placebo","PLACEBO","Ongoing","2015-08-13","2016-02-23","195","Y","1","2015-10-04","53","2016-08-18","372","Y","Y","Visit 2","2","2015-12-08","118","Blood","WBC count (x 109 cells/L)","","4.5","11"
"01-003","Site 01","01","43","F","Hispanic","Placebo","PLACEBO","Ongoing","2015-08-13","2016-02-23","195","Y","1","2015-10-04","53","2016-08-18","372","Y","Y","Visit 2","2","2015-12-08","118","Serum","Albumin (g/L)","30.4904182136382","35","55"
"01-003","Site 01","01","43","F","Hispanic","Placebo","PLACEBO","Ongoing","2015-08-13","2016-02-23","195","Y","1","2015-10-04","53","2016-08-18","372","Y","Y","Visit 2","2","2015-12-08","118","Serum","Alkaline phosphatase (ALP) (μkat/L)","1.29740444342686","0.5","1.5"
"01-003","Site 01","01","43","F","Hispanic","Placebo","PLACEBO","Ongoing","2015-08-13","2016-02-23","195","Y","1","2015-10-04","53","2016-08-18","372","Y","Y","Visit 2","2","2015-12-08","118","Serum","Aminotransferase, alanine (ALT) (pkat/L)","0.387427547378127","0","0.58"
"01-003","Site 01","01","43","F","Hispanic","Placebo","PLACEBO","Ongoing","2015-08-13","2016-02-23","195","Y","1","2015-10-04","53","2016-08-18","372","Y","Y","Visit 2","2","2015-12-08","118","Serum","Aminotransferase, aspartate (AST) (pkat/L)","","0","0.58"
"01-003","Site 01","01","43","F","Hispanic","Placebo","PLACEBO","Ongoing","2015-08-13","2016-02-23","195","Y","1","2015-10-04","53","2016-08-18","372","Y","Y","Visit 2","2","2015-12-08","118","Serum","Calcium (mmol/L)","2.32949228689286","2.2","2.6"
"01-003","Site 01","01","43","F","Hispanic","Placebo","PLACEBO","Ongoing","2015-08-13","2016-02-23","195","Y","1","2015-10-04","53","2016-08-18","372","Y","Y","Visit 2","2","2015-12-08","118","Serum","Chloride (mmol/L)","103.257515681584","98","106"
"01-003","Site 01","01","43","F","Hispanic","Placebo","PLACEBO","Ongoing","2015-08-13","2016-02-23","195","Y","1","2015-10-04","53","2016-08-18","372","Y","Y","Visit 2","2","2015-12-08","118","Serum","Creatinine (μmol/L)","58.2709758972863","61.9","115"
"01-003","Site 01","01","43","F","Hispanic","Placebo","PLACEBO","Ongoing","2015-08-13","2016-02-23","195","Y","1","2015-10-04","53","2016-08-18","372","Y","Y","Visit 2","2","2015-12-08","118","Serum","Direct Bilirubin (μmol/L)","0","0","5.1"
"01-003","Site 01","01","43","F","Hispanic","Placebo","PLACEBO","Ongoing","2015-08-13","2016-02-23","195","Y","1","2015-10-04","53","2016-08-18","372","Y","Y","Visit 2","2","2015-12-08","118","Serum","IgE (mg/L)","0.0956289987752529","0.1","0.4"
"01-003","Site 01","01","43","F","Hispanic","Placebo","PLACEBO","Ongoing","2015-08-13","2016-02-23","195","Y","1","2015-10-04","53","2016-08-18","372","Y","Y","Visit 2","2","2015-12-08","118","Serum","Magnesium (mmol/L)","0.687653233464788","0.62","0.99"
"01-003","Site 01","01","43","F","Hispanic","Placebo","PLACEBO","Ongoing","2015-08-13","2016-02-23","195","Y","1","2015-10-04","53","2016-08-18","372","Y","Y","Visit 2","2","2015-12-08","118","Serum","Potassium (mmol/L)","5.077054587426","3.5","5"
"01-003","Site 01","01","43","F","Hispanic","Placebo","PLACEBO","Ongoing","2015-08-13","2016-02-23","195","Y","1","2015-10-04","53","2016-08-18","372","Y","Y","Visit 2","2","2015-12-08","118","Serum","Sodium (mmol/L)","142.14150799043","136","145"
"01-003","Site 01","01","43","F","Hispanic","Placebo","PLACEBO","Ongoing","2015-08-13","2016-02-23","195","Y","1","2015-10-04","53","2016-08-18","372","Y","Y","Visit 2","2","2015-12-08","118","Serum","Total Bilirubin (μmol/L)","17.9652781455167","5.1","20.5"
"01-004","Site 01","01","42","F","Hispanic","Placebo","PLACEBO","Ongoing","2015-01-12","2015-04-26","105","Y","1","2015-03-02","50","2016-01-05","359","N","Y","Screening","0","2015-01-12","1","Blood","Platelet count (x 109/L)","198.819684812459","150","350"
"01-004","Site 01","01","42","F","Hispanic","Placebo","PLACEBO","Ongoing","2015-01-12","2015-04-26","105","Y","1","2015-03-02","50","2016-01-05","359","N","Y","Screening","0","2015-01-12","1","Blood","RBC count (x 1012 cells/L)","4.75414340755143","4.2","5.9"
"01-004","Site 01","01","42","F","Hispanic","Placebo","PLACEBO","Ongoing","2015-01-12","2015-04-26","105","Y","1","2015-03-02","50","2016-01-05","359","N","Y","Screening","0","2015-01-12","1","Blood","WBC count (x 109 cells/L)","12.5671744744081","4.5","11"
"01-004","Site 01","01","42","F","Hispanic","Placebo","PLACEBO","Ongoing","2015-01-12","2015-04-26","105","Y","1","2015-03-02","50","2016-01-05","359","N","Y","Screening","0","2015-01-12","1","Serum","Albumin (g/L)","42.9436932590303","35","55"
"01-004","Site 01","01","42","F","Hispanic","Placebo","PLACEBO","Ongoing","2015-01-12","2015-04-26","105","Y","1","2015-03-02","50","2016-01-05","359","N","Y","Screening","0","2015-01-12","1","Serum","Alkaline phosphatase (ALP) (μkat/L)","0.85585431420007","0.5","1.5"
"01-004","Site 01","01","42","F","Hispanic","Placebo","PLACEBO","Ongoing","2015-01-12","2015-04-26","105","Y","1","2015-03-02","50","2016-01-05","359","N","Y","Screening","0","2015-01-12","1","Serum","Aminotransferase, alanine (ALT) (pkat/L)","","0","0.58"
"01-004","Site 01","01","42","F","Hispanic","Placebo","PLACEBO","Ongoing","2015-01-12","2015-04-26","105","Y","1","2015-03-02","50","2016-01-05","359","N","Y","Screening","0","2015-01-12","1","Serum","Aminotransferase, aspartate (AST) (pkat/L)","0.549106276745448","0","0.58"
"01-004","Site 01","01","42","F","Hispanic","Placebo","PLACEBO","Ongoing","2015-01-12","2015-04-26","105","Y","1","2015-03-02","50","2016-01-05","359","N","Y","Screening","0","2015-01-12","1","Serum","Calcium (mmol/L)","2.34241142800136","2.2","2.6"
"01-004","Site 01","01","42","F","Hispanic","Placebo","PLACEBO","Ongoing","2015-01-12","2015-04-26","105","Y","1","2015-03-02","50","2016-01-05","359","N","Y","Screening","0","2015-01-12","1","Serum","Chloride (mmol/L)","101.764572182013","98","106"
"01-004","Site 01","01","42","F","Hispanic","Placebo","PLACEBO","Ongoing","2015-01-12","2015-04-26","105","Y","1","2015-03-02","50","2016-01-05","359","N","Y","Screening","0","2015-01-12","1","Serum","Creatinine (μmol/L)","123.041971828692","61.9","115"
"01-004","Site 01","01","42","F","Hispanic","Placebo","PLACEBO","Ongoing","2015-01-12","2015-04-26","105","Y","1","2015-03-02","50","2016-01-05","359","N","Y","Screening","0","2015-01-12","1","Serum","Direct Bilirubin (μmol/L)","0.897855243788464","0","5.1"
"01-004","Site 01","01","42","F","Hispanic","Placebo","PLACEBO","Ongoing","2015-01-12","2015-04-26","105","Y","1","2015-03-02","50","2016-01-05","359","N","Y","Screening","0","2015-01-12","1","Serum","IgE (mg/L)","0.182903226687268","0.1","0.4"
"01-004","Site 01","01","42","F","Hispanic","Placebo","PLACEBO","Ongoing","2015-01-12","2015-04-26","105","Y","1","2015-03-02","50","2016-01-05","359","N","Y","Screening","0","2015-01-12","1","Serum","Magnesium (mmol/L)","0.843764090612162","0.62","0.99"
"01-004","Site 01","01","42","F","Hispanic","Placebo","PLACEBO","Ongoing","2015-01-12","2015-04-26","105","Y","1","2015-03-02","50","2016-01-05","359","N","Y","Screening","0","2015-01-12","1","Serum","Potassium (mmol/L)","3.57078348460485","3.5","5"
"01-004","Site 01","01","42","F","Hispanic","Placebo","PLACEBO","Ongoing","2015-01-12","2015-04-26","105","Y","1","2015-03-02","50","2016-01-05","359","N","Y","Screening","0","2015-01-12","1","Serum","Sodium (mmol/L)","134.579467261","136","145"
"01-004","Site 01","01","42","F","Hispanic","Placebo","PLACEBO","Ongoing","2015-01-12","2015-04-26","105","Y","1","2015-03-02","50","2016-01-05","359","N","Y","Screening","0","2015-01-12","1","Serum","Total Bilirubin (μmol/L)","","5.1","20.5"
"01-004","Site 01","01","42","F","Hispanic","Placebo","PLACEBO","Ongoing","2015-01-12","2015-04-26","105","Y","1","2015-03-02","50","2016-01-05","359","N","Y","Visit 1","1","2015-03-02","50","Blood","Platelet count (x 109/L)","203.216996149477","150","350"
"01-004","Site 01","01","42","F","Hispanic","Placebo","PLACEBO","Ongoing","2015-01-12","2015-04-26","105","Y","1","2015-03-02","50","2016-01-05","359","N","Y","Visit 1","1","2015-03-02","50","Blood","RBC count (x 1012 cells/L)","4.59352235232271","4.2","5.9"
"01-004","Site 01","01","42","F","Hispanic","Placebo","PLACEBO","Ongoing","2015-01-12","2015-04-26","105","Y","1","2015-03-02","50","2016-01-05","359","N","Y","Visit 1","1","2015-03-02","50","Blood","WBC count (x 109 cells/L)","4.11268990111011","4.5","11"
"01-004","Site 01","01","42","F","Hispanic","Placebo","PLACEBO","Ongoing","2015-01-12","2015-04-26","105","Y","1","2015-03-02","50","2016-01-05","359","N","Y","Visit 1","1","2015-03-02","50","Serum","Albumin (g/L)","35.9123870157723","35","55"
"01-004","Site 01","01","42","F","Hispanic","Placebo","PLACEBO","Ongoing","2015-01-12","2015-04-26","105","Y","1","2015-03-02","50","2016-01-05","359","N","Y","Visit 1","1","2015-03-02","50","Serum","Alkaline phosphatase (ALP) (μkat/L)","1.15594640889508","0.5","1.5"
"01-004","Site 01","01","42","F","Hispanic","Placebo","PLACEBO","Ongoing","2015-01-12","2015-04-26","105","Y","1","2015-03-02","50","2016-01-05","359","N","Y","Visit 1","1","2015-03-02","50","Serum","Aminotransferase, alanine (ALT) (pkat/L)","0.2308989577144","0","0.58"
"01-004","Site 01","01","42","F","Hispanic","Placebo","PLACEBO","Ongoing","2015-01-12","2015-04-26","105","Y","1","2015-03-02","50","2016-01-05","359","N","Y","Visit 1","1","2015-03-02","50","Serum","Aminotransferase, aspartate (AST) (pkat/L)","0","0","0.58"
"01-004","Site 01","01","42","F","Hispanic","Placebo","PLACEBO","Ongoing","2015-01-12","2015-04-26","105","Y","1","2015-03-02","50","2016-01-05","359","N","Y","Visit 1","1","2015-03-02","50","Serum","Calcium (mmol/L)","","2.2","2.6"
"01-004","Site 01","01","42","F","Hispanic","Placebo","PLACEBO","Ongoing","2015-01-12","2015-04-26","105","Y","1","2015-03-02","50","2016-01-05","359","N","Y","Visit 1","1","2015-03-02","50","Serum","Chloride (mmol/L)","","98","106"
"01-004","Site 01","01","42","F","Hispanic","Placebo","PLACEBO","Ongoing","2015-01-12","2015-04-26","105","Y","1","2015-03-02","50","2016-01-05","359","N","Y","Visit 1","1","2015-03-02","50","Serum","Creatinine (μmol/L)","62.3520944744999","61.9","115"
"01-004","Site 01","01","42","F","Hispanic","Placebo","PLACEBO","Ongoing","2015-01-12","2015-04-26","105","Y","1","2015-03-02","50","2016-01-05","359","N","Y","Visit 1","1","2015-03-02","50","Serum","Direct Bilirubin (μmol/L)","1.1916257550896","0","5.1"
"01-004","Site 01","01","42","F","Hispanic","Placebo","PLACEBO","Ongoing","2015-01-12","2015-04-26","105","Y","1","2015-03-02","50","2016-01-05","359","N","Y","Visit 1","1","2015-03-02","50","Serum","IgE (mg/L)","0.27329416172081","0.1","0.4"
"01-004","Site 01","01","42","F","Hispanic","Placebo","PLACEBO","Ongoing","2015-01-12","2015-04-26","105","Y","1","2015-03-02","50","2016-01-05","359","N","Y","Visit 1","1","2015-03-02","50","Serum","Magnesium (mmol/L)","0.479238168294069","0.62","0.99"
"01-004","Site 01","01","42","F","Hispanic","Placebo","PLACEBO","Ongoing","2015-01-12","2015-04-26","105","Y","1","2015-03-02","50","2016-01-05","359","N","Y","Visit 1","1","2015-03-02","50","Serum","Potassium (mmol/L)","3.86861349725075","3.5","5"
"01-004","Site 01","01","42","F","Hispanic","Placebo","PLACEBO","Ongoing","2015-01-12","2015-04-26","105","Y","1","2015-03-02","50","2016-01-05","359","N","Y","Visit 1","1","2015-03-02","50","Serum","Sodium (mmol/L)","149.545060510219","136","145"
"01-004","Site 01","01","42","F","Hispanic","Placebo","PLACEBO","Ongoing","2015-01-12","2015-04-26","105","Y","1","2015-03-02","50","2016-01-05","359","N","Y","Visit 1","1","2015-03-02","50","Serum","Total Bilirubin (μmol/L)","29.5090659006079","5.1","20.5"
"01-005","Site 01","01","51","M","White","Treatment B","TRTB","Ongoing","2015-11-11","2016-03-18","129","Y","1","2016-01-01","52","2016-11-18","374","Y","N","Screening","0","2015-11-11","1","Blood","Platelet count (x 109/L)","463.243139180733","150","350"
"01-005","Site 01","01","51","M","White","Treatment B","TRTB","Ongoing","2015-11-11","2016-03-18","129","Y","1","2016-01-01","52","2016-11-18","374","Y","N","Screening","0","2015-11-11","1","Blood","RBC count (x 1012 cells/L)","6.23010335043089","4.2","5.9"
"01-005","Site 01","01","51","M","White","Treatment B","TRTB","Ongoing","2015-11-11","2016-03-18","129","Y","1","2016-01-01","52","2016-11-18","374","Y","N","Screening","0","2015-11-11","1","Blood","WBC count (x 109 cells/L)","2.62697864606129","4.5","11"
"01-005","Site 01","01","51","M","White","Treatment B","TRTB","Ongoing","2015-11-11","2016-03-18","129","Y","1","2016-01-01","52","2016-11-18","374","Y","N","Screening","0","2015-11-11","1","Serum","Albumin (g/L)","59.2336415220535","35","55"
"01-005","Site 01","01","51","M","White","Treatment B","TRTB","Ongoing","2015-11-11","2016-03-18","129","Y","1","2016-01-01","52","2016-11-18","374","Y","N","Screening","0","2015-11-11","1","Serum","Alkaline phosphatase (ALP) (μkat/L)","0.683324275546981","0.5","1.5"
"01-005","Site 01","01","51","M","White","Treatment B","TRTB","Ongoing","2015-11-11","2016-03-18","129","Y","1","2016-01-01","52","2016-11-18","374","Y","N","Screening","0","2015-11-11","1","Serum","Aminotransferase, alanine (ALT) (pkat/L)","0.615933487430712","0","0.58"
"01-005","Site 01","01","51","M","White","Treatment B","TRTB","Ongoing","2015-11-11","2016-03-18","129","Y","1","2016-01-01","52","2016-11-18","374","Y","N","Screening","0","2015-11-11","1","Serum","Aminotransferase, aspartate (AST) (pkat/L)","0.376151129378731","0","0.58"
"01-005","Site 01","01","51","M","White","Treatment B","TRTB","Ongoing","2015-11-11","2016-03-18","129","Y","1","2016-01-01","52","2016-11-18","374","Y","N","Screening","0","2015-11-11","1","Serum","Calcium (mmol/L)","2.28071994611498","2.2","2.6"
"01-005","Site 01","01","51","M","White","Treatment B","TRTB","Ongoing","2015-11-11","2016-03-18","129","Y","1","2016-01-01","52","2016-11-18","374","Y","N","Screening","0","2015-11-11","1","Serum","Chloride (mmol/L)","109.392477838559","98","106"
"01-005","Site 01","01","51","M","White","Treatment B","TRTB","Ongoing","2015-11-11","2016-03-18","129","Y","1","2016-01-01","52","2016-11-18","374","Y","N","Screening","0","2015-11-11","1","Serum","Creatinine (μmol/L)","122.149152234623","61.9","115"
"01-005","Site 01","01","51","M","White","Treatment B","TRTB","Ongoing","2015-11-11","2016-03-18","129","Y","1","2016-01-01","52","2016-11-18","374","Y","N","Screening","0","2015-11-11","1","Serum","Direct Bilirubin (μmol/L)","3.01321786346743","0","5.1"
"01-005","Site 01","01","51","M","White","Treatment B","TRTB","Ongoing","2015-11-11","2016-03-18","129","Y","1","2016-01-01","52","2016-11-18","374","Y","N","Screening","0","2015-11-11","1","Serum","IgE (mg/L)","0.28474560397982","0.1","0.4"
"01-005","Site 01","01","51","M","White","Treatment B","TRTB","Ongoing","2015-11-11","2016-03-18","129","Y","1","2016-01-01","52","2016-11-18","374","Y","N","Screening","0","2015-11-11","1","Serum","Magnesium (mmol/L)","0.690481055236582","0.62","0.99"
"01-005","Site 01","01","51","M","White","Treatment B","TRTB","Ongoing","2015-11-11","2016-03-18","129","Y","1","2016-01-01","52","2016-11-18","374","Y","N","Screening","0","2015-11-11","1","Serum","Potassium (mmol/L)","4.68120215232467","3.5","5"
"01-005","Site 01","01","51","M","White","Treatment B","TRTB","Ongoing","2015-11-11","2016-03-18","129","Y","1","2016-01-01","52","2016-11-18","374","Y","N","Screening","0","2015-11-11","1","Serum","Sodium (mmol/L)","138.870342350005","136","145"
"01-005","Site 01","01","51","M","White","Treatment B","TRTB","Ongoing","2015-11-11","2016-03-18","129","Y","1","2016-01-01","52","2016-11-18","374","Y","N","Screening","0","2015-11-11","1","Serum","Total Bilirubin (μmol/L)","18.4440590026213","5.1","20.5"
"01-005","Site 01","01","51","M","White","Treatment B","TRTB","Ongoing","2015-11-11","2016-03-18","129","Y","1","2016-01-01","52","2016-11-18","374","Y","N","Visit 1","1","2016-01-01","52","Blood","Platelet count (x 109/L)","131.317651074618","150","350"
"01-005","Site 01","01","51","M","White","Treatment B","TRTB","Ongoing","2015-11-11","2016-03-18","129","Y","1","2016-01-01","52","2016-11-18","374","Y","N","Visit 1","1","2016-01-01","52","Blood","RBC count (x 1012 cells/L)","4.8781942421691","4.2","5.9"
"01-005","Site 01","01","51","M","White","Treatment B","TRTB","Ongoing","2015-11-11","2016-03-18","129","Y","1","2016-01-01","52","2016-11-18","374","Y","N","Visit 1","1","2016-01-01","52","Blood","WBC count (x 109 cells/L)","8.67922302951748","4.5","11"
"01-005","Site 01","01","51","M","White","Treatment B","TRTB","Ongoing","2015-11-11","2016-03-18","129","Y","1","2016-01-01","52","2016-11-18","374","Y","N","Visit 1","1","2016-01-01","52","Serum","Albumin (g/L)","32.182723900946","35","55"
"01-005","Site 01","01","51","M","White","Treatment B","TRTB","Ongoing","2015-11-11","2016-03-18","129","Y","1","2016-01-01","52","2016-11-18","374","Y","N","Visit 1","1","2016-01-01","52","Serum","Alkaline phosphatase (ALP) (μkat/L)","0.301711246670373","0.5","1.5"
"01-005","Site 01","01","51","M","White","Treatment B","TRTB","Ongoing","2015-11-11","2016-03-18","129","Y","1","2016-01-01","52","2016-11-18","374","Y","N","Visit 1","1","2016-01-01","52","Serum","Aminotransferase, alanine (ALT) (pkat/L)","0.0410093243679377","0","0.58"
"01-005","Site 01","01","51","M","White","Treatment B","TRTB","Ongoing","2015-11-11","2016-03-18","129","Y","1","2016-01-01","52","2016-11-18","374","Y","N","Visit 1","1","2016-01-01","52","Serum","Aminotransferase, aspartate (AST) (pkat/L)","0.173110072533774","0","0.58"
"01-005","Site 01","01","51","M","White","Treatment B","TRTB","Ongoing","2015-11-11","2016-03-18","129","Y","1","2016-01-01","52","2016-11-18","374","Y","N","Visit 1","1","2016-01-01","52","Serum","Calcium (mmol/L)","","2.2","2.6"
"01-005","Site 01","01","51","M","White","Treatment B","TRTB","Ongoing","2015-11-11","2016-03-18","129","Y","1","2016-01-01","52","2016-11-18","374","Y","N","Visit 1","1","2016-01-01","52","Serum","Chloride (mmol/L)","98.7081266055703","98","106"
"01-005","Site 01","01","51","M","White","Treatment B","TRTB","Ongoing","2015-11-11","2016-03-18","129","Y","1","2016-01-01","52","2016-11-18","374","Y","N","Visit 1","1","2016-01-01","52","Serum","Creatinine (μmol/L)","47.2938570501292","61.9","115"
"01-005","Site 01","01","51","M","White","Treatment B","TRTB","Ongoing","2015-11-11","2016-03-18","129","Y","1","2016-01-01","52","2016-11-18","374","Y","N","Visit 1","1","2016-01-01","52","Serum","Direct Bilirubin (μmol/L)","0.514301627396305","0","5.1"
"01-005","Site 01","01","51","M","White","Treatment B","TRTB","Ongoing","2015-11-11","2016-03-18","129","Y","1","2016-01-01","52","2016-11-18","374","Y","N","Visit 1","1","2016-01-01","52","Serum","IgE (mg/L)","0.27052608467864","0.1","0.4"
"01-005","Site 01","01","51","M","White","Treatment B","TRTB","Ongoing","2015-11-11","2016-03-18","129","Y","1","2016-01-01","52","2016-11-18","374","Y","N","Visit 1","1","2016-01-01","52","Serum","Magnesium (mmol/L)","0.628459221359288","0.62","0.99"
"01-005","Site 01","01","51","M","White","Treatment B","TRTB","Ongoing","2015-11-11","2016-03-18","129","Y","1","2016-01-01","52","2016-11-18","374","Y","N","Visit 1","1","2016-01-01","52","Serum","Potassium (mmol/L)","4.7188451441438","3.5","5"
"01-005","Site 01","01","51","M","White","Treatment B","TRTB","Ongoing","2015-11-11","2016-03-18","129","Y","1","2016-01-01","52","2016-11-18","374","Y","N","Visit 1","1","2016-01-01","52","Serum","Sodium (mmol/L)","137.571906879448","136","145"
"01-005","Site 01","01","51","M","White","Treatment B","TRTB","Ongoing","2015-11-11","2016-03-18","129","Y","1","2016-01-01","52","2016-11-18","374","Y","N","Visit 1","1","2016-01-01","52","Serum","Total Bilirubin (μmol/L)","2.25858941294149","5.1","20.5"
"01-009","Site 01","01","44","M","White","Treatment B","TRTB","Ongoing","2015-11-25","2016-05-07","165","Y","1","2016-01-24","61","2016-11-29","371","Y","Y","Screening","0","2015-11-25","1","Blood","Platelet count (x 109/L)","215.809935074148","150","350"
"01-009","Site 01","01","44","M","White","Treatment B","TRTB","Ongoing","2015-11-25","2016-05-07","165","Y","1","2016-01-24","61","2016-11-29","371","Y","Y","Screening","0","2015-11-25","1","Blood","RBC count (x 1012 cells/L)","5.71675318769101","4.2","5.9"
"01-009","Site 01","01","44","M","White","Treatment B","TRTB","Ongoing","2015-11-25","2016-05-07","165","Y","1","2016-01-24","61","2016-11-29","371","Y","Y","Screening","0","2015-11-25","1","Blood","WBC count (x 109 cells/L)","","4.5","11"
"01-009","Site 01","01","44","M","White","Treatment B","TRTB","Ongoing","2015-11-25","2016-05-07","165","Y","1","2016-01-24","61","2016-11-29","371","Y","Y","Screening","0","2015-11-25","1","Serum","Albumin (g/L)","51.288330741507","35","55"
"01-009","Site 01","01","44","M","White","Treatment B","TRTB","Ongoing","2015-11-25","2016-05-07","165","Y","1","2016-01-24","61","2016-11-29","371","Y","Y","Screening","0","2015-11-25","1","Serum","Alkaline phosphatase (ALP) (μkat/L)","1.93818836375163","0.5","1.5"
"01-009","Site 01","01","44","M","White","Treatment B","TRTB","Ongoing","2015-11-25","2016-05-07","165","Y","1","2016-01-24","61","2016-11-29","371","Y","Y","Screening","0","2015-11-25","1","Serum","Aminotransferase, alanine (ALT) (pkat/L)","0.288614746258522","0","0.58"
"01-009","Site 01","01","44","M","White","Treatment B","TRTB","Ongoing","2015-11-25","2016-05-07","165","Y","1","2016-01-24","61","2016-11-29","371","Y","Y","Screening","0","2015-11-25","1","Serum","Aminotransferase, aspartate (AST) (pkat/L)","0.44490206037002","0","0.58"
"01-009","Site 01","01","44","M","White","Treatment B","TRTB","Ongoing","2015-11-25","2016-05-07","165","Y","1","2016-01-24","61","2016-11-29","371","Y","Y","Screening","0","2015-11-25","1","Serum","Calcium (mmol/L)","2.39555745630877","2.2","2.6"
"01-009","Site 01","01","44","M","White","Treatment B","TRTB","Ongoing","2015-11-25","2016-05-07","165","Y","1","2016-01-24","61","2016-11-29","371","Y","Y","Screening","0","2015-11-25","1","Serum","Chloride (mmol/L)","97.3303330110206","98","106"
"01-009","Site 01","01","44","M","White","Treatment B","TRTB","Ongoing","2015-11-25","2016-05-07","165","Y","1","2016-01-24","61","2016-11-29","371","Y","Y","Screening","0","2015-11-25","1","Serum","Creatinine (μmol/L)","68.5537474972545","61.9","115"
"01-009","Site 01","01","44","M","White","Treatment B","TRTB","Ongoing","2015-11-25","2016-05-07","165","Y","1","2016-01-24","61","2016-11-29","371","Y","Y","Screening","0","2015-11-25","1","Serum","Direct Bilirubin (μmol/L)","4.23132998455481","0","5.1"
"01-009","Site 01","01","44","M","White","Treatment B","TRTB","Ongoing","2015-11-25","2016-05-07","165","Y","1","2016-01-24","61","2016-11-29","371","Y","Y","Screening","0","2015-11-25","1","Serum","IgE (mg/L)","0.308732407624202","0.1","0.4"
"01-009","Site 01","01","44","M","White","Treatment B","TRTB","Ongoing","2015-11-25","2016-05-07","165","Y","1","2016-01-24","61","2016-11-29","371","Y","Y","Screening","0","2015-11-25","1","Serum","Magnesium (mmol/L)","0.898540764131125","0.62","0.99"
"01-009","Site 01","01","44","M","White","Treatment B","TRTB","Ongoing","2015-11-25","2016-05-07","165","Y","1","2016-01-24","61","2016-11-29","371","Y","Y","Screening","0","2015-11-25","1","Serum","Potassium (mmol/L)","5.26015011997845","3.5","5"
"01-009","Site 01","01","44","M","White","Treatment B","TRTB","Ongoing","2015-11-25","2016-05-07","165","Y","1","2016-01-24","61","2016-11-29","371","Y","Y","Screening","0","2015-11-25","1","Serum","Sodium (mmol/L)","139.293475687638","136","145"
"01-009","Site 01","01","44","M","White","Treatment B","TRTB","Ongoing","2015-11-25","2016-05-07","165","Y","1","2016-01-24","61","2016-11-29","371","Y","Y","Screening","0","2015-11-25","1","Serum","Total Bilirubin (μmol/L)","7.60386737165412","5.1","20.5"
"01-009","Site 01","01","44","M","White","Treatment B","TRTB","Ongoing","2015-11-25","2016-05-07","165","Y","1","2016-01-24","61","2016-11-29","371","Y","Y","Visit 1","1","2016-01-24","61","Blood","Platelet count (x 109/L)","241.041343131549","150","350"
"01-009","Site 01","01","44","M","White","Treatment B","TRTB","Ongoing","2015-11-25","2016-05-07","165","Y","1","2016-01-24","61","2016-11-29","371","Y","Y","Visit 1","1","2016-01-24","61","Blood","RBC count (x 1012 cells/L)","4.61716081717901","4.2","5.9"
"01-009","Site 01","01","44","M","White","Treatment B","TRTB","Ongoing","2015-11-25","2016-05-07","165","Y","1","2016-01-24","61","2016-11-29","371","Y","Y","Visit 1","1","2016-01-24","61","Blood","WBC count (x 109 cells/L)","9.90369352430777","4.5","11"
"01-009","Site 01","01","44","M","White","Treatment B","TRTB","Ongoing","2015-11-25","2016-05-07","165","Y","1","2016-01-24","61","2016-11-29","371","Y","Y","Visit 1","1","2016-01-24","61","Serum","Albumin (g/L)","33.484548003058","35","55"
"01-009","Site 01","01","44","M","White","Treatment B","TRTB","Ongoing","2015-11-25","2016-05-07","165","Y","1","2016-01-24","61","2016-11-29","371","Y","Y","Visit 1","1","2016-01-24","61","Serum","Alkaline phosphatase (ALP) (μkat/L)","1.3057936678018","0.5","1.5"
"01-009","Site 01","01","44","M","White","Treatment B","TRTB","Ongoing","2015-11-25","2016-05-07","165","Y","1","2016-01-24","61","2016-11-29","371","Y","Y","Visit 1","1","2016-01-24","61","Serum","Aminotransferase, alanine (ALT) (pkat/L)","0.163880159779162","0","0.58"
"01-009","Site 01","01","44","M","White","Treatment B","TRTB","Ongoing","2015-11-25","2016-05-07","165","Y","1","2016-01-24","61","2016-11-29","371","Y","Y","Visit 1","1","2016-01-24","61","Serum","Aminotransferase, aspartate (AST) (pkat/L)","0.665111793018047","0","0.58"
"01-009","Site 01","01","44","M","White","Treatment B","TRTB","Ongoing","2015-11-25","2016-05-07","165","Y","1","2016-01-24","61","2016-11-29","371","Y","Y","Visit 1","1","2016-01-24","61","Serum","Calcium (mmol/L)","","2.2","2.6"
"01-009","Site 01","01","44","M","White","Treatment B","TRTB","Ongoing","2015-11-25","2016-05-07","165","Y","1","2016-01-24","61","2016-11-29","371","Y","Y","Visit 1","1","2016-01-24","61","Serum","Chloride (mmol/L)","98.837226992523","98","106"
"01-009","Site 01","01","44","M","White","Treatment B","TRTB","Ongoing","2015-11-25","2016-05-07","165","Y","1","2016-01-24","61","2016-11-29","371","Y","Y","Visit 1","1","2016-01-24","61","Serum","Creatinine (μmol/L)","50.3842169959582","61.9","115"
"01-009","Site 01","01","44","M","White","Treatment B","TRTB","Ongoing","2015-11-25","2016-05-07","165","Y","1","2016-01-24","61","2016-11-29","371","Y","Y","Visit 1","1","2016-01-24","61","Serum","Direct Bilirubin (μmol/L)","4.54244287125978","0","5.1"
"01-009","Site 01","01","44","M","White","Treatment B","TRTB","Ongoing","2015-11-25","2016-05-07","165","Y","1","2016-01-24","61","2016-11-29","371","Y","Y","Visit 1","1","2016-01-24","61","Serum","IgE (mg/L)","0.182069914982695","0.1","0.4"
"01-009","Site 01","01","44","M","White","Treatment B","TRTB","Ongoing","2015-11-25","2016-05-07","165","Y","1","2016-01-24","61","2016-11-29","371","Y","Y","Visit 1","1","2016-01-24","61","Serum","Magnesium (mmol/L)","0.610819066624471","0.62","0.99"
"01-009","Site 01","01","44","M","White","Treatment B","TRTB","Ongoing","2015-11-25","2016-05-07","165","Y","1","2016-01-24","61","2016-11-29","371","Y","Y","Visit 1","1","2016-01-24","61","Serum","Potassium (mmol/L)","3.10483320546895","3.5","5"
"01-009","Site 01","01","44","M","White","Treatment B","TRTB","Ongoing","2015-11-25","2016-05-07","165","Y","1","2016-01-24","61","2016-11-29","371","Y","Y","Visit 1","1","2016-01-24","61","Serum","Sodium (mmol/L)","137.315249410756","136","145"
"01-009","Site 01","01","44","M","White","Treatment B","TRTB","Ongoing","2015-11-25","2016-05-07","165","Y","1","2016-01-24","61","2016-11-29","371","Y","Y","Visit 1","1","2016-01-24","61","Serum","Total Bilirubin (μmol/L)","8.8313994329137","5.1","20.5"
"01-009","Site 01","01","44","M","White","Treatment B","TRTB","Ongoing","2015-11-25","2016-05-07","165","Y","1","2016-01-24","61","2016-11-29","371","Y","Y","Visit 2","2","2016-03-16","113","Blood","Platelet count (x 109/L)","319.600361413117","150","350"
"01-009","Site 01","01","44","M","White","Treatment B","TRTB","Ongoing","2015-11-25","2016-05-07","165","Y","1","2016-01-24","61","2016-11-29","371","Y","Y","Visit 2","2","2016-03-16","113","Blood","RBC count (x 1012 cells/L)","4.78392929562098","4.2","5.9"
"01-009","Site 01","01","44","M","White","Treatment B","TRTB","Ongoing","2015-11-25","2016-05-07","165","Y","1","2016-01-24","61","2016-11-29","371","Y","Y","Visit 2","2","2016-03-16","113","Blood","WBC count (x 109 cells/L)","0","4.5","11"
"01-009","Site 01","01","44","M","White","Treatment B","TRTB","Ongoing","2015-11-25","2016-05-07","165","Y","1","2016-01-24","61","2016-11-29","371","Y","Y","Visit 2","2","2016-03-16","113","Serum","Albumin (g/L)","59.445986202009","35","55"
"01-009","Site 01","01","44","M","White","Treatment B","TRTB","Ongoing","2015-11-25","2016-05-07","165","Y","1","2016-01-24","61","2016-11-29","371","Y","Y","Visit 2","2","2016-03-16","113","Serum","Alkaline phosphatase (ALP) (μkat/L)","1.43347279955199","0.5","1.5"
"01-009","Site 01","01","44","M","White","Treatment B","TRTB","Ongoing","2015-11-25","2016-05-07","165","Y","1","2016-01-24","61","2016-11-29","371","Y","Y","Visit 2","2","2016-03-16","113","Serum","Aminotransferase, alanine (ALT) (pkat/L)","0","0","0.58"
"01-009","Site 01","01","44","M","White","Treatment B","TRTB","Ongoing","2015-11-25","2016-05-07","165","Y","1","2016-01-24","61","2016-11-29","371","Y","Y","Visit 2","2","2016-03-16","113","Serum","Aminotransferase, aspartate (AST) (pkat/L)","","0","0.58"
"01-009","Site 01","01","44","M","White","Treatment B","TRTB","Ongoing","2015-11-25","2016-05-07","165","Y","1","2016-01-24","61","2016-11-29","371","Y","Y","Visit 2","2","2016-03-16","113","Serum","Calcium (mmol/L)","1.99085442099071","2.2","2.6"
"01-009","Site 01","01","44","M","White","Treatment B","TRTB","Ongoing","2015-11-25","2016-05-07","165","Y","1","2016-01-24","61","2016-11-29","371","Y","Y","Visit 2","2","2016-03-16","113","Serum","Chloride (mmol/L)","100.567085485914","98","106"
"01-009","Site 01","01","44","M","White","Treatment B","TRTB","Ongoing","2015-11-25","2016-05-07","165","Y","1","2016-01-24","61","2016-11-29","371","Y","Y","Visit 2","2","2016-03-16","113","Serum","Creatinine (μmol/L)","89.6771564218253","61.9","115"
"01-009","Site 01","01","44","M","White","Treatment B","TRTB","Ongoing","2015-11-25","2016-05-07","165","Y","1","2016-01-24","61","2016-11-29","371","Y","Y","Visit 2","2","2016-03-16","113","Serum","Direct Bilirubin (μmol/L)","3.02274824291664","0","5.1"
"01-009","Site 01","01","44","M","White","Treatment B","TRTB","Ongoing","2015-11-25","2016-05-07","165","Y","1","2016-01-24","61","2016-11-29","371","Y","Y","Visit 2","2","2016-03-16","113","Serum","IgE (mg/L)","0.121838117067559","0.1","0.4"
"01-009","Site 01","01","44","M","White","Treatment B","TRTB","Ongoing","2015-11-25","2016-05-07","165","Y","1","2016-01-24","61","2016-11-29","371","Y","Y","Visit 2","2","2016-03-16","113","Serum","Magnesium (mmol/L)","1.21776613696695","0.62","0.99"
"01-009","Site 01","01","44","M","White","Treatment B","TRTB","Ongoing","2015-11-25","2016-05-07","165","Y","1","2016-01-24","61","2016-11-29","371","Y","Y","Visit 2","2","2016-03-16","113","Serum","Potassium (mmol/L)","3.17740091725431","3.5","5"
"01-009","Site 01","01","44","M","White","Treatment B","TRTB","Ongoing","2015-11-25","2016-05-07","165","Y","1","2016-01-24","61","2016-11-29","371","Y","Y","Visit 2","2","2016-03-16","113","Serum","Sodium (mmol/L)","136.786326012818","136","145"
"01-009","Site 01","01","44","M","White","Treatment B","TRTB","Ongoing","2015-11-25","2016-05-07","165","Y","1","2016-01-24","61","2016-11-29","371","Y","Y","Visit 2","2","2016-03-16","113","Serum","Total Bilirubin (μmol/L)","13.9275140876352","5.1","20.5"
"01-010","Site 01","01","35","F","Black","Treatment B","TRTB","Ongoing","2015-01-06","2015-05-04","119","Y","1","2015-02-23","49","2016-01-10","370","N","N","Screening","0","2015-01-06","1","Blood","Platelet count (x 109/L)","354.247820157918","150","350"
"01-010","Site 01","01","35","F","Black","Treatment B","TRTB","Ongoing","2015-01-06","2015-05-04","119","Y","1","2015-02-23","49","2016-01-10","370","N","N","Screening","0","2015-01-06","1","Blood","RBC count (x 1012 cells/L)","3.27582360979421","4.2","5.9"
"01-010","Site 01","01","35","F","Black","Treatment B","TRTB","Ongoing","2015-01-06","2015-05-04","119","Y","1","2015-02-23","49","2016-01-10","370","N","N","Screening","0","2015-01-06","1","Blood","WBC count (x 109 cells/L)","10.4374211130765","4.5","11"
"01-010","Site 01","01","35","F","Black","Treatment B","TRTB","Ongoing","2015-01-06","2015-05-04","119","Y","1","2015-02-23","49","2016-01-10","370","N","N","Screening","0","2015-01-06","1","Serum","Albumin (g/L)","50.3015988719217","35","55"
"01-010","Site 01","01","35","F","Black","Treatment B","TRTB","Ongoing","2015-01-06","2015-05-04","119","Y","1","2015-02-23","49","2016-01-10","370","N","N","Screening","0","2015-01-06","1","Serum","Alkaline phosphatase (ALP) (μkat/L)","0.971159800063998","0.5","1.5"
"01-010","Site 01","01","35","F","Black","Treatment B","TRTB","Ongoing","2015-01-06","2015-05-04","119","Y","1","2015-02-23","49","2016-01-10","370","N","N","Screening","0","2015-01-06","1","Serum","Aminotransferase, alanine (ALT) (pkat/L)","0.509856817463958","0","0.58"
"01-010","Site 01","01","35","F","Black","Treatment B","TRTB","Ongoing","2015-01-06","2015-05-04","119","Y","1","2015-02-23","49","2016-01-10","370","N","N","Screening","0","2015-01-06","1","Serum","Aminotransferase, aspartate (AST) (pkat/L)","0","0","0.58"
"01-010","Site 01","01","35","F","Black","Treatment B","TRTB","Ongoing","2015-01-06","2015-05-04","119","Y","1","2015-02-23","49","2016-01-10","370","N","N","Screening","0","2015-01-06","1","Serum","Calcium (mmol/L)","2.49376661809342","2.2","2.6"
"01-010","Site 01","01","35","F","Black","Treatment B","TRTB","Ongoing","2015-01-06","2015-05-04","119","Y","1","2015-02-23","49","2016-01-10","370","N","N","Screening","0","2015-01-06","1","Serum","Chloride (mmol/L)","105.967905323298","98","106"
"01-010","Site 01","01","35","F","Black","Treatment B","TRTB","Ongoing","2015-01-06","2015-05-04","119","Y","1","2015-02-23","49","2016-01-10","370","N","N","Screening","0","2015-01-06","1","Serum","Creatinine (μmol/L)","95.4958200363633","61.9","115"
"01-010","Site 01","01","35","F","Black","Treatment B","TRTB","Ongoing","2015-01-06","2015-05-04","119","Y","1","2015-02-23","49","2016-01-10","370","N","N","Screening","0","2015-01-06","1","Serum","Direct Bilirubin (μmol/L)","4.73637044338579","0","5.1"
"01-010","Site 01","01","35","F","Black","Treatment B","TRTB","Ongoing","2015-01-06","2015-05-04","119","Y","1","2015-02-23","49","2016-01-10","370","N","N","Screening","0","2015-01-06","1","Serum","IgE (mg/L)","0.298985538635615","0.1","0.4"
"01-010","Site 01","01","35","F","Black","Treatment B","TRTB","Ongoing","2015-01-06","2015-05-04","119","Y","1","2015-02-23","49","2016-01-10","370","N","N","Screening","0","2015-01-06","1","Serum","Magnesium (mmol/L)","0.411084480212765","0.62","0.99"
"01-010","Site 01","01","35","F","Black","Treatment B","TRTB","Ongoing","2015-01-06","2015-05-04","119","Y","1","2015-02-23","49","2016-01-10","370","N","N","Screening","0","2015-01-06","1","Serum","Potassium (mmol/L)","3.6739243612848","3.5","5"
"01-010","Site 01","01","35","F","Black","Treatment B","TRTB","Ongoing","2015-01-06","2015-05-04","119","Y","1","2015-02-23","49","2016-01-10","370","N","N","Screening","0","2015-01-06","1","Serum","Sodium (mmol/L)","147.515669434898","136","145"
"01-010","Site 01","01","35","F","Black","Treatment B","TRTB","Ongoing","2015-01-06","2015-05-04","119","Y","1","2015-02-23","49","2016-01-10","370","N","N","Screening","0","2015-01-06","1","Serum","Total Bilirubin (μmol/L)","31.1150716495391","5.1","20.5"
"01-010","Site 01","01","35","F","Black","Treatment B","TRTB","Ongoing","2015-01-06","2015-05-04","119","Y","1","2015-02-23","49","2016-01-10","370","N","N","Visit 1","1","2015-02-23","49","Blood","Platelet count (x 109/L)","324.122833499555","150","350"
"01-010","Site 01","01","35","F","Black","Treatment B","TRTB","Ongoing","2015-01-06","2015-05-04","119","Y","1","2015-02-23","49","2016-01-10","370","N","N","Visit 1","1","2015-02-23","49","Blood","RBC count (x 1012 cells/L)","4.46779194291954","4.2","5.9"
"01-010","Site 01","01","35","F","Black","Treatment B","TRTB","Ongoing","2015-01-06","2015-05-04","119","Y","1","2015-02-23","49","2016-01-10","370","N","N","Visit 1","1","2015-02-23","49","Blood","WBC count (x 109 cells/L)","2.53593810231877","4.5","11"
"01-010","Site 01","01","35","F","Black","Treatment B","TRTB","Ongoing","2015-01-06","2015-05-04","119","Y","1","2015-02-23","49","2016-01-10","370","N","N","Visit 1","1","2015-02-23","49","Serum","Albumin (g/L)","52.9620969287605","35","55"
"01-010","Site 01","01","35","F","Black","Treatment B","TRTB","Ongoing","2015-01-06","2015-05-04","119","Y","1","2015-02-23","49","2016-01-10","370","N","N","Visit 1","1","2015-02-23","49","Serum","Alkaline phosphatase (ALP) (μkat/L)","0.218010576469154","0.5","1.5"
"01-010","Site 01","01","35","F","Black","Treatment B","TRTB","Ongoing","2015-01-06","2015-05-04","119","Y","1","2015-02-23","49","2016-01-10","370","N","N","Visit 1","1","2015-02-23","49","Serum","Aminotransferase, alanine (ALT) (pkat/L)","0.203487203669687","0","0.58"
"01-010","Site 01","01","35","F","Black","Treatment B","TRTB","Ongoing","2015-01-06","2015-05-04","119","Y","1","2015-02-23","49","2016-01-10","370","N","N","Visit 1","1","2015-02-23","49","Serum","Aminotransferase, aspartate (AST) (pkat/L)","0.201892387574307","0","0.58"
"01-010","Site 01","01","35","F","Black","Treatment B","TRTB","Ongoing","2015-01-06","2015-05-04","119","Y","1","2015-02-23","49","2016-01-10","370","N","N","Visit 1","1","2015-02-23","49","Serum","Calcium (mmol/L)","","2.2","2.6"
"01-010","Site 01","01","35","F","Black","Treatment B","TRTB","Ongoing","2015-01-06","2015-05-04","119","Y","1","2015-02-23","49","2016-01-10","370","N","N","Visit 1","1","2015-02-23","49","Serum","Chloride (mmol/L)","105.431613661498","98","106"
"01-010","Site 01","01","35","F","Black","Treatment B","TRTB","Ongoing","2015-01-06","2015-05-04","119","Y","1","2015-02-23","49","2016-01-10","370","N","N","Visit 1","1","2015-02-23","49","Serum","Creatinine (μmol/L)","78.2830088449328","61.9","115"
"01-010","Site 01","01","35","F","Black","Treatment B","TRTB","Ongoing","2015-01-06","2015-05-04","119","Y","1","2015-02-23","49","2016-01-10","370","N","N","Visit 1","1","2015-02-23","49","Serum","Direct Bilirubin (μmol/L)","0","0","5.1"
"01-010","Site 01","01","35","F","Black","Treatment B","TRTB","Ongoing","2015-01-06","2015-05-04","119","Y","1","2015-02-23","49","2016-01-10","370","N","N","Visit 1","1","2015-02-23","49","Serum","IgE (mg/L)","0.347912271386179","0.1","0.4"
"01-010","Site 01","01","35","F","Black","Treatment B","TRTB","Ongoing","2015-01-06","2015-05-04","119","Y","1","2015-02-23","49","2016-01-10","370","N","N","Visit 1","1","2015-02-23","49","Serum","Magnesium (mmol/L)","1.19692455533731","0.62","0.99"
"01-010","Site 01","01","35","F","Black","Treatment B","TRTB","Ongoing","2015-01-06","2015-05-04","119","Y","1","2015-02-23","49","2016-01-10","370","N","N","Visit 1","1","2015-02-23","49","Serum","Potassium (mmol/L)","6.57499317102939","3.5","5"
"01-010","Site 01","01","35","F","Black","Treatment B","TRTB","Ongoing","2015-01-06","2015-05-04","119","Y","1","2015-02-23","49","2016-01-10","370","N","N","Visit 1","1","2015-02-23","49","Serum","Sodium (mmol/L)","128.055774000299","136","145"
"01-010","Site 01","01","35","F","Black","Treatment B","TRTB","Ongoing","2015-01-06","2015-05-04","119","Y","1","2015-02-23","49","2016-01-10","370","N","N","Visit 1","1","2015-02-23","49","Serum","Total Bilirubin (μmol/L)","8.73230659725205","5.1","20.5"
"01-011","Site 01","01","33","F","Other/Mixed","Treatment A","TRTA","Ongoing","2015-10-04","2016-01-23","112","Y","1","2015-11-30","58","2016-09-26","359","Y","N","Screening","0","2015-10-04","1","Blood","Platelet count (x 109/L)","198.1086092315","150","350"
"01-011","Site 01","01","33","F","Other/Mixed","Treatment A","TRTA","Ongoing","2015-10-04","2016-01-23","112","Y","1","2015-11-30","58","2016-09-26","359","Y","N","Screening","0","2015-10-04","1","Blood","RBC count (x 1012 cells/L)","5.7943745623202","4.2","5.9"
"01-011","Site 01","01","33","F","Other/Mixed","Treatment A","TRTA","Ongoing","2015-10-04","2016-01-23","112","Y","1","2015-11-30","58","2016-09-26","359","Y","N","Screening","0","2015-10-04","1","Blood","WBC count (x 109 cells/L)","8.51041690157831","4.5","11"
"01-011","Site 01","01","33","F","Other/Mixed","Treatment A","TRTA","Ongoing","2015-10-04","2016-01-23","112","Y","1","2015-11-30","58","2016-09-26","359","Y","N","Screening","0","2015-10-04","1","Serum","Albumin (g/L)","44.1021865654291","35","55"
"01-011","Site 01","01","33","F","Other/Mixed","Treatment A","TRTA","Ongoing","2015-10-04","2016-01-23","112","Y","1","2015-11-30","58","2016-09-26","359","Y","N","Screening","0","2015-10-04","1","Serum","Alkaline phosphatase (ALP) (μkat/L)","1.52797973115826","0.5","1.5"
"01-011","Site 01","01","33","F","Other/Mixed","Treatment A","TRTA","Ongoing","2015-10-04","2016-01-23","112","Y","1","2015-11-30","58","2016-09-26","359","Y","N","Screening","0","2015-10-04","1","Serum","Aminotransferase, alanine (ALT) (pkat/L)","0.00387592988997904","0","0.58"
"01-011","Site 01","01","33","F","Other/Mixed","Treatment A","TRTA","Ongoing","2015-10-04","2016-01-23","112","Y","1","2015-11-30","58","2016-09-26","359","Y","N","Screening","0","2015-10-04","1","Serum","Aminotransferase, aspartate (AST) (pkat/L)","0.500303705965232","0","0.58"
"01-011","Site 01","01","33","F","Other/Mixed","Treatment A","TRTA","Ongoing","2015-10-04","2016-01-23","112","Y","1","2015-11-30","58","2016-09-26","359","Y","N","Screening","0","2015-10-04","1","Serum","Calcium (mmol/L)","2.518926492415","2.2","2.6"
"01-011","Site 01","01","33","F","Other/Mixed","Treatment A","TRTA","Ongoing","2015-10-04","2016-01-23","112","Y","1","2015-11-30","58","2016-09-26","359","Y","N","Screening","0","2015-10-04","1","Serum","Chloride (mmol/L)","104.931863916327","98","106"
"01-011","Site 01","01","33","F","Other/Mixed","Treatment A","TRTA","Ongoing","2015-10-04","2016-01-23","112","Y","1","2015-11-30","58","2016-09-26","359","Y","N","Screening","0","2015-10-04","1","Serum","Creatinine (μmol/L)","77.1929766579195","61.9","115"
"01-011","Site 01","01","33","F","Other/Mixed","Treatment A","TRTA","Ongoing","2015-10-04","2016-01-23","112","Y","1","2015-11-30","58","2016-09-26","359","Y","N","Screening","0","2015-10-04","1","Serum","Direct Bilirubin (μmol/L)","2.72925018460332","0","5.1"
"01-011","Site 01","01","33","F","Other/Mixed","Treatment A","TRTA","Ongoing","2015-10-04","2016-01-23","112","Y","1","2015-11-30","58","2016-09-26","359","Y","N","Screening","0","2015-10-04","1","Serum","IgE (mg/L)","0.117412432346292","0.1","0.4"
"01-011","Site 01","01","33","F","Other/Mixed","Treatment A","TRTA","Ongoing","2015-10-04","2016-01-23","112","Y","1","2015-11-30","58","2016-09-26","359","Y","N","Screening","0","2015-10-04","1","Serum","Magnesium (mmol/L)","1.04137420295043","0.62","0.99"
"01-011","Site 01","01","33","F","Other/Mixed","Treatment A","TRTA","Ongoing","2015-10-04","2016-01-23","112","Y","1","2015-11-30","58","2016-09-26","359","Y","N","Screening","0","2015-10-04","1","Serum","Potassium (mmol/L)","5.00167263426782","3.5","5"
"01-011","Site 01","01","33","F","Other/Mixed","Treatment A","TRTA","Ongoing","2015-10-04","2016-01-23","112","Y","1","2015-11-30","58","2016-09-26","359","Y","N","Screening","0","2015-10-04","1","Serum","Sodium (mmol/L)","140.152505599894","136","145"
"01-011","Site 01","01","33","F","Other/Mixed","Treatment A","TRTA","Ongoing","2015-10-04","2016-01-23","112","Y","1","2015-11-30","58","2016-09-26","359","Y","N","Screening","0","2015-10-04","1","Serum","Total Bilirubin (μmol/L)","8.72843790799224","5.1","20.5"
"01-011","Site 01","01","33","F","Other/Mixed","Treatment A","TRTA","Ongoing","2015-10-04","2016-01-23","112","Y","1","2015-11-30","58","2016-09-26","359","Y","N","Visit 1","1","2015-11-30","58","Blood","Platelet count (x 109/L)","497.888996740508","150","350"
"01-011","Site 01","01","33","F","Other/Mixed","Treatment A","TRTA","Ongoing","2015-10-04","2016-01-23","112","Y","1","2015-11-30","58","2016-09-26","359","Y","N","Visit 1","1","2015-11-30","58","Blood","RBC count (x 1012 cells/L)","5.08857861683537","4.2","5.9"
"01-011","Site 01","01","33","F","Other/Mixed","Treatment A","TRTA","Ongoing","2015-10-04","2016-01-23","112","Y","1","2015-11-30","58","2016-09-26","359","Y","N","Visit 1","1","2015-11-30","58","Blood","WBC count (x 109 cells/L)","0.050571407801959","4.5","11"
"01-011","Site 01","01","33","F","Other/Mixed","Treatment A","TRTA","Ongoing","2015-10-04","2016-01-23","112","Y","1","2015-11-30","58","2016-09-26","359","Y","N","Visit 1","1","2015-11-30","58","Serum","Albumin (g/L)","50.0659869396745","35","55"
"01-011","Site 01","01","33","F","Other/Mixed","Treatment A","TRTA","Ongoing","2015-10-04","2016-01-23","112","Y","1","2015-11-30","58","2016-09-26","359","Y","N","Visit 1","1","2015-11-30","58","Serum","Alkaline phosphatase (ALP) (μkat/L)","0.561766186508411","0.5","1.5"
"01-011","Site 01","01","33","F","Other/Mixed","Treatment A","TRTA","Ongoing","2015-10-04","2016-01-23","112","Y","1","2015-11-30","58","2016-09-26","359","Y","N","Visit 1","1","2015-11-30","58","Serum","Aminotransferase, alanine (ALT) (pkat/L)","0.060595328667693","0","0.58"
"01-011","Site 01","01","33","F","Other/Mixed","Treatment A","TRTA","Ongoing","2015-10-04","2016-01-23","112","Y","1","2015-11-30","58","2016-09-26","359","Y","N","Visit 1","1","2015-11-30","58","Serum","Aminotransferase, aspartate (AST) (pkat/L)","0.010357766383084","0","0.58"
"01-011","Site 01","01","33","F","Other/Mixed","Treatment A","TRTA","Ongoing","2015-10-04","2016-01-23","112","Y","1","2015-11-30","58","2016-09-26","359","Y","N","Visit 1","1","2015-11-30","58","Serum","Calcium (mmol/L)","","2.2","2.6"
"01-011","Site 01","01","33","F","Other/Mixed","Treatment A","TRTA","Ongoing","2015-10-04","2016-01-23","112","Y","1","2015-11-30","58","2016-09-26","359","Y","N","Visit 1","1","2015-11-30","58","Serum","Chloride (mmol/L)","108.619351749653","98","106"
"01-011","Site 01","01","33","F","Other/Mixed","Treatment A","TRTA","Ongoing","2015-10-04","2016-01-23","112","Y","1","2015-11-30","58","2016-09-26","359","Y","N","Visit 1","1","2015-11-30","58","Serum","Creatinine (μmol/L)","52.9047646294469","61.9","115"
"01-011","Site 01","01","33","F","Other/Mixed","Treatment A","TRTA","Ongoing","2015-10-04","2016-01-23","112","Y","1","2015-11-30","58","2016-09-26","359","Y","N","Visit 1","1","2015-11-30","58","Serum","Direct Bilirubin (μmol/L)","3.71803036792302","0","5.1"
"01-011","Site 01","01","33","F","Other/Mixed","Treatment A","TRTA","Ongoing","2015-10-04","2016-01-23","112","Y","1","2015-11-30","58","2016-09-26","359","Y","N","Visit 1","1","2015-11-30","58","Serum","IgE (mg/L)","0.337110825372803","0.1","0.4"
"01-011","Site 01","01","33","F","Other/Mixed","Treatment A","TRTA","Ongoing","2015-10-04","2016-01-23","112","Y","1","2015-11-30","58","2016-09-26","359","Y","N","Visit 1","1","2015-11-30","58","Serum","Magnesium (mmol/L)","0.751692466131351","0.62","0.99"
"01-011","Site 01","01","33","F","Other/Mixed","Treatment A","TRTA","Ongoing","2015-10-04","2016-01-23","112","Y","1","2015-11-30","58","2016-09-26","359","Y","N","Visit 1","1","2015-11-30","58","Serum","Potassium (mmol/L)","4.06687102337573","3.5","5"
"01-011","Site 01","01","33","F","Other/Mixed","Treatment A","TRTA","Ongoing","2015-10-04","2016-01-23","112","Y","1","2015-11-30","58","2016-09-26","359","Y","N","Visit 1","1","2015-11-30","58","Serum","Sodium (mmol/L)","146.456017187579","136","145"
"01-011","Site 01","01","33","F","Other/Mixed","Treatment A","TRTA","Ongoing","2015-10-04","2016-01-23","112","Y","1","2015-11-30","58","2016-09-26","359","Y","N","Visit 1","1","2015-11-30","58","Serum","Total Bilirubin (μmol/L)","0.0605886172231198","5.1","20.5"
"01-012","Site 01","01","36","M","White","Placebo","PLACEBO","Ongoing","2015-04-18","2015-12-21","248","Y","1","2015-06-06","50","2016-04-26","375","N","Y","Screening","0","2015-04-18","1","Blood","Platelet count (x 109/L)","223.55994732341","150","350"
"01-012","Site 01","01","36","M","White","Placebo","PLACEBO","Ongoing","2015-04-18","2015-12-21","248","Y","1","2015-06-06","50","2016-04-26","375","N","Y","Screening","0","2015-04-18","1","Blood","RBC count (x 1012 cells/L)","4.57240783291865","4.2","5.9"
"01-012","Site 01","01","36","M","White","Placebo","PLACEBO","Ongoing","2015-04-18","2015-12-21","248","Y","1","2015-06-06","50","2016-04-26","375","N","Y","Screening","0","2015-04-18","1","Blood","WBC count (x 109 cells/L)","7.96447272383614","4.5","11"
"01-012","Site 01","01","36","M","White","Placebo","PLACEBO","Ongoing","2015-04-18","2015-12-21","248","Y","1","2015-06-06","50","2016-04-26","375","N","Y","Screening","0","2015-04-18","1","Serum","Albumin (g/L)","39.0709864520223","35","55"
"01-012","Site 01","01","36","M","White","Placebo","PLACEBO","Ongoing","2015-04-18","2015-12-21","248","Y","1","2015-06-06","50","2016-04-26","375","N","Y","Screening","0","2015-04-18","1","Serum","Alkaline phosphatase (ALP) (μkat/L)","1.4282314730262","0.5","1.5"
"01-012","Site 01","01","36","M","White","Placebo","PLACEBO","Ongoing","2015-04-18","2015-12-21","248","Y","1","2015-06-06","50","2016-04-26","375","N","Y","Screening","0","2015-04-18","1","Serum","Aminotransferase, alanine (ALT) (pkat/L)","0","0","0.58"
"01-012","Site 01","01","36","M","White","Placebo","PLACEBO","Ongoing","2015-04-18","2015-12-21","248","Y","1","2015-06-06","50","2016-04-26","375","N","Y","Screening","0","2015-04-18","1","Serum","Aminotransferase, aspartate (AST) (pkat/L)","0.361388807042018","0","0.58"
"01-012","Site 01","01","36","M","White","Placebo","PLACEBO","Ongoing","2015-04-18","2015-12-21","248","Y","1","2015-06-06","50","2016-04-26","375","N","Y","Screening","0","2015-04-18","1","Serum","Calcium (mmol/L)","2.24579933191562","2.2","2.6"
"01-012","Site 01","01","36","M","White","Placebo","PLACEBO","Ongoing","2015-04-18","2015-12-21","248","Y","1","2015-06-06","50","2016-04-26","375","N","Y","Screening","0","2015-04-18","1","Serum","Chloride (mmol/L)","109.658042150819","98","106"
"01-012","Site 01","01","36","M","White","Placebo","PLACEBO","Ongoing","2015-04-18","2015-12-21","248","Y","1","2015-06-06","50","2016-04-26","375","N","Y","Screening","0","2015-04-18","1","Serum","Creatinine (μmol/L)","87.9418323967715","61.9","115"
"01-012","Site 01","01","36","M","White","Placebo","PLACEBO","Ongoing","2015-04-18","2015-12-21","248","Y","1","2015-06-06","50","2016-04-26","375","N","Y","Screening","0","2015-04-18","1","Serum","Direct Bilirubin (μmol/L)","2.72541941851861","0","5.1"
"01-012","Site 01","01","36","M","White","Placebo","PLACEBO","Ongoing","2015-04-18","2015-12-21","248","Y","1","2015-06-06","50","2016-04-26","375","N","Y","Screening","0","2015-04-18","1","Serum","IgE (mg/L)","0.064599423507186","0.1","0.4"
"01-012","Site 01","01","36","M","White","Placebo","PLACEBO","Ongoing","2015-04-18","2015-12-21","248","Y","1","2015-06-06","50","2016-04-26","375","N","Y","Screening","0","2015-04-18","1","Serum","Magnesium (mmol/L)","0.914394757703962","0.62","0.99"
"01-012","Site 01","01","36","M","White","Placebo","PLACEBO","Ongoing","2015-04-18","2015-12-21","248","Y","1","2015-06-06","50","2016-04-26","375","N","Y","Screening","0","2015-04-18","1","Serum","Potassium (mmol/L)","3.48645232433414","3.5","5"
"01-012","Site 01","01","36","M","White","Placebo","PLACEBO","Ongoing","2015-04-18","2015-12-21","248","Y","1","2015-06-06","50","2016-04-26","375","N","Y","Screening","0","2015-04-18","1","Serum","Sodium (mmol/L)","147.194440685289","136","145"
"01-012","Site 01","01","36","M","White","Placebo","PLACEBO","Ongoing","2015-04-18","2015-12-21","248","Y","1","2015-06-06","50","2016-04-26","375","N","Y","Screening","0","2015-04-18","1","Serum","Total Bilirubin (μmol/L)","21.7206535630321","5.1","20.5"
"01-012","Site 01","01","36","M","White","Placebo","PLACEBO","Ongoing","2015-04-18","2015-12-21","248","Y","1","2015-06-06","50","2016-04-26","375","N","Y","Visit 1","1","2015-06-06","50","Blood","Platelet count (x 109/L)","311.007772840685","150","350"
"01-012","Site 01","01","36","M","White","Placebo","PLACEBO","Ongoing","2015-04-18","2015-12-21","248","Y","1","2015-06-06","50","2016-04-26","375","N","Y","Visit 1","1","2015-06-06","50","Blood","RBC count (x 1012 cells/L)","4.11359370148629","4.2","5.9"
"01-012","Site 01","01","36","M","White","Placebo","PLACEBO","Ongoing","2015-04-18","2015-12-21","248","Y","1","2015-06-06","50","2016-04-26","375","N","Y","Visit 1","1","2015-06-06","50","Blood","WBC count (x 109 cells/L)","2.77550360024179","4.5","11"
"01-012","Site 01","01","36","M","White","Placebo","PLACEBO","Ongoing","2015-04-18","2015-12-21","248","Y","1","2015-06-06","50","2016-04-26","375","N","Y","Visit 1","1","2015-06-06","50","Serum","Albumin (g/L)","55.3071695800095","35","55"
"01-012","Site 01","01","36","M","White","Placebo","PLACEBO","Ongoing","2015-04-18","2015-12-21","248","Y","1","2015-06-06","50","2016-04-26","375","N","Y","Visit 1","1","2015-06-06","50","Serum","Alkaline phosphatase (ALP) (μkat/L)","1.50457581544233","0.5","1.5"
"01-012","Site 01","01","36","M","White","Placebo","PLACEBO","Ongoing","2015-04-18","2015-12-21","248","Y","1","2015-06-06","50","2016-04-26","375","N","Y","Visit 1","1","2015-06-06","50","Serum","Aminotransferase, alanine (ALT) (pkat/L)","0.577604796378049","0","0.58"
"01-012","Site 01","01","36","M","White","Placebo","PLACEBO","Ongoing","2015-04-18","2015-12-21","248","Y","1","2015-06-06","50","2016-04-26","375","N","Y","Visit 1","1","2015-06-06","50","Serum","Aminotransferase, aspartate (AST) (pkat/L)","0","0","0.58"
"01-012","Site 01","01","36","M","White","Placebo","PLACEBO","Ongoing","2015-04-18","2015-12-21","248","Y","1","2015-06-06","50","2016-04-26","375","N","Y","Visit 1","1","2015-06-06","50","Serum","Calcium (mmol/L)","","2.2","2.6"
"01-012","Site 01","01","36","M","White","Placebo","PLACEBO","Ongoing","2015-04-18","2015-12-21","248","Y","1","2015-06-06","50","2016-04-26","375","N","Y","Visit 1","1","2015-06-06","50","Serum","Chloride (mmol/L)","97.0385057063593","98","106"
"01-012","Site 01","01","36","M","White","Placebo","PLACEBO","Ongoing","2015-04-18","2015-12-21","248","Y","1","2015-06-06","50","2016-04-26","375","N","Y","Visit 1","1","2015-06-06","50","Serum","Creatinine (μmol/L)","10.9636002538488","61.9","115"
"01-012","Site 01","01","36","M","White","Placebo","PLACEBO","Ongoing","2015-04-18","2015-12-21","248","Y","1","2015-06-06","50","2016-04-26","375","N","Y","Visit 1","1","2015-06-06","50","Serum","Direct Bilirubin (μmol/L)","0.580236764147341","0","5.1"
"01-012","Site 01","01","36","M","White","Placebo","PLACEBO","Ongoing","2015-04-18","2015-12-21","248","Y","1","2015-06-06","50","2016-04-26","375","N","Y","Visit 1","1","2015-06-06","50","Serum","IgE (mg/L)","0.385207650629574","0.1","0.4"
"01-012","Site 01","01","36","M","White","Placebo","PLACEBO","Ongoing","2015-04-18","2015-12-21","248","Y","1","2015-06-06","50","2016-04-26","375","N","Y","Visit 1","1","2015-06-06","50","Serum","Magnesium (mmol/L)","0.902716574431194","0.62","0.99"
"01-012","Site 01","01","36","M","White","Placebo","PLACEBO","Ongoing","2015-04-18","2015-12-21","248","Y","1","2015-06-06","50","2016-04-26","375","N","Y","Visit 1","1","2015-06-06","50","Serum","Potassium (mmol/L)","2.94969017896397","3.5","5"
"01-012","Site 01","01","36","M","White","Placebo","PLACEBO","Ongoing","2015-04-18","2015-12-21","248","Y","1","2015-06-06","50","2016-04-26","375","N","Y","Visit 1","1","2015-06-06","50","Serum","Sodium (mmol/L)","145.78198030527","136","145"
"01-012","Site 01","01","36","M","White","Placebo","PLACEBO","Ongoing","2015-04-18","2015-12-21","248","Y","1","2015-06-06","50","2016-04-26","375","N","Y","Visit 1","1","2015-06-06","50","Serum","Total Bilirubin (μmol/L)","7.54921993400722","5.1","20.5"
"01-012","Site 01","01","36","M","White","Placebo","PLACEBO","Ongoing","2015-04-18","2015-12-21","248","Y","1","2015-06-06","50","2016-04-26","375","N","Y","Visit 3","3","2015-10-07","173","Blood","Platelet count (x 109/L)","175.290582986618","150","350"
"01-012","Site 01","01","36","M","White","Placebo","PLACEBO","Ongoing","2015-04-18","2015-12-21","248","Y","1","2015-06-06","50","2016-04-26","375","N","Y","Visit 3","3","2015-10-07","173","Blood","RBC count (x 1012 cells/L)","5.07654526002678","4.2","5.9"
"01-012","Site 01","01","36","M","White","Placebo","PLACEBO","Ongoing","2015-04-18","2015-12-21","248","Y","1","2015-06-06","50","2016-04-26","375","N","Y","Visit 3","3","2015-10-07","173","Blood","WBC count (x 109 cells/L)","6.65301651148872","4.5","11"
"01-012","Site 01","01","36","M","White","Placebo","PLACEBO","Ongoing","2015-04-18","2015-12-21","248","Y","1","2015-06-06","50","2016-04-26","375","N","Y","Visit 3","3","2015-10-07","173","Serum","Albumin (g/L)","42.9928037091179","35","55"
"01-012","Site 01","01","36","M","White","Placebo","PLACEBO","Ongoing","2015-04-18","2015-12-21","248","Y","1","2015-06-06","50","2016-04-26","375","N","Y","Visit 3","3","2015-10-07","173","Serum","Alkaline phosphatase (ALP) (μkat/L)","1.22993618574611","0.5","1.5"
"01-012","Site 01","01","36","M","White","Placebo","PLACEBO","Ongoing","2015-04-18","2015-12-21","248","Y","1","2015-06-06","50","2016-04-26","375","N","Y","Visit 3","3","2015-10-07","173","Serum","Aminotransferase, alanine (ALT) (pkat/L)","0.779353025983582","0","0.58"
"01-012","Site 01","01","36","M","White","Placebo","PLACEBO","Ongoing","2015-04-18","2015-12-21","248","Y","1","2015-06-06","50","2016-04-26","375","N","Y","Visit 3","3","2015-10-07","173","Serum","Aminotransferase, aspartate (AST) (pkat/L)","0.563865658786749","0","0.58"
"01-012","Site 01","01","36","M","White","Placebo","PLACEBO","Ongoing","2015-04-18","2015-12-21","248","Y","1","2015-06-06","50","2016-04-26","375","N","Y","Visit 3","3","2015-10-07","173","Serum","Calcium (mmol/L)","2.39874136255693","2.2","2.6"
"01-012","Site 01","01","36","M","White","Placebo","PLACEBO","Ongoing","2015-04-18","2015-12-21","248","Y","1","2015-06-06","50","2016-04-26","375","N","Y","Visit 3","3","2015-10-07","173","Serum","Chloride (mmol/L)","","98","106"
"01-012","Site 01","01","36","M","White","Placebo","PLACEBO","Ongoing","2015-04-18","2015-12-21","248","Y","1","2015-06-06","50","2016-04-26","375","N","Y","Visit 3","3","2015-10-07","173","Serum","Creatinine (μmol/L)","46.6768326268138","61.9","115"
"01-012","Site 01","01","36","M","White","Placebo","PLACEBO","Ongoing","2015-04-18","2015-12-21","248","Y","1","2015-06-06","50","2016-04-26","375","N","Y","Visit 3","3","2015-10-07","173","Serum","Direct Bilirubin (μmol/L)","2.41558012586117","0","5.1"
"01-012","Site 01","01","36","M","White","Placebo","PLACEBO","Ongoing","2015-04-18","2015-12-21","248","Y","1","2015-06-06","50","2016-04-26","375","N","Y","Visit 3","3","2015-10-07","173","Serum","IgE (mg/L)","0.166788772948486","0.1","0.4"
"01-012","Site 01","01","36","M","White","Placebo","PLACEBO","Ongoing","2015-04-18","2015-12-21","248","Y","1","2015-06-06","50","2016-04-26","375","N","Y","Visit 3","3","2015-10-07","173","Serum","Magnesium (mmol/L)","1.07548410406877","0.62","0.99"
"01-012","Site 01","01","36","M","White","Placebo","PLACEBO","Ongoing","2015-04-18","2015-12-21","248","Y","1","2015-06-06","50","2016-04-26","375","N","Y","Visit 3","3","2015-10-07","173","Serum","Potassium (mmol/L)","6.00745950957447","3.5","5"
"01-012","Site 01","01","36","M","White","Placebo","PLACEBO","Ongoing","2015-04-18","2015-12-21","248","Y","1","2015-06-06","50","2016-04-26","375","N","Y","Visit 3","3","2015-10-07","173","Serum","Sodium (mmol/L)","136.82563219307","136","145"
"01-012","Site 01","01","36","M","White","Placebo","PLACEBO","Ongoing","2015-04-18","2015-12-21","248","Y","1","2015-06-06","50","2016-04-26","375","N","Y","Visit 3","3","2015-10-07","173","Serum","Total Bilirubin (μmol/L)","26.5905364603515","5.1","20.5"
"01-013","Site 01","01","40","F","White","Treatment A","TRTA","Ongoing","2015-07-15","2016-06-08","330","Y","1","2015-09-11","59","2016-07-08","360","Y","Y","Screening","0","2015-07-15","1","Blood","Platelet count (x 109/L)","124.671147171301","150","350"
"01-013","Site 01","01","40","F","White","Treatment A","TRTA","Ongoing","2015-07-15","2016-06-08","330","Y","1","2015-09-11","59","2016-07-08","360","Y","Y","Screening","0","2015-07-15","1","Blood","RBC count (x 1012 cells/L)","4.7924044683356","4.2","5.9"
"01-013","Site 01","01","40","F","White","Treatment A","TRTA","Ongoing","2015-07-15","2016-06-08","330","Y","1","2015-09-11","59","2016-07-08","360","Y","Y","Screening","0","2015-07-15","1","Blood","WBC count (x 109 cells/L)","9.6288428673302","4.5","11"
"01-013","Site 01","01","40","F","White","Treatment A","TRTA","Ongoing","2015-07-15","2016-06-08","330","Y","1","2015-09-11","59","2016-07-08","360","Y","Y","Screening","0","2015-07-15","1","Serum","Albumin (g/L)","46.8971623803667","35","55"
"01-013","Site 01","01","40","F","White","Treatment A","TRTA","Ongoing","2015-07-15","2016-06-08","330","Y","1","2015-09-11","59","2016-07-08","360","Y","Y","Screening","0","2015-07-15","1","Serum","Alkaline phosphatase (ALP) (μkat/L)","1.00899680879572","0.5","1.5"
"01-013","Site 01","01","40","F","White","Treatment A","TRTA","Ongoing","2015-07-15","2016-06-08","330","Y","1","2015-09-11","59","2016-07-08","360","Y","Y","Screening","0","2015-07-15","1","Serum","Aminotransferase, alanine (ALT) (pkat/L)","0.311555986581728","0","0.58"
"01-013","Site 01","01","40","F","White","Treatment A","TRTA","Ongoing","2015-07-15","2016-06-08","330","Y","1","2015-09-11","59","2016-07-08","360","Y","Y","Screening","0","2015-07-15","1","Serum","Aminotransferase, aspartate (AST) (pkat/L)","0.473704995082346","0","0.58"
"01-013","Site 01","01","40","F","White","Treatment A","TRTA","Ongoing","2015-07-15","2016-06-08","330","Y","1","2015-09-11","59","2016-07-08","360","Y","Y","Screening","0","2015-07-15","1","Serum","Calcium (mmol/L)","2.48630173618568","2.2","2.6"
"01-013","Site 01","01","40","F","White","Treatment A","TRTA","Ongoing","2015-07-15","2016-06-08","330","Y","1","2015-09-11","59","2016-07-08","360","Y","Y","Screening","0","2015-07-15","1","Serum","Chloride (mmol/L)","103.68924342176","98","106"
"01-013","Site 01","01","40","F","White","Treatment A","TRTA","Ongoing","2015-07-15","2016-06-08","330","Y","1","2015-09-11","59","2016-07-08","360","Y","Y","Screening","0","2015-07-15","1","Serum","Creatinine (μmol/L)","115.943852905367","61.9","115"
"01-013","Site 01","01","40","F","White","Treatment A","TRTA","Ongoing","2015-07-15","2016-06-08","330","Y","1","2015-09-11","59","2016-07-08","360","Y","Y","Screening","0","2015-07-15","1","Serum","Direct Bilirubin (μmol/L)","0","0","5.1"
"01-013","Site 01","01","40","F","White","Treatment A","TRTA","Ongoing","2015-07-15","2016-06-08","330","Y","1","2015-09-11","59","2016-07-08","360","Y","Y","Screening","0","2015-07-15","1","Serum","IgE (mg/L)","0.752358037956007","0.1","0.4"
"01-013","Site 01","01","40","F","White","Treatment A","TRTA","Ongoing","2015-07-15","2016-06-08","330","Y","1","2015-09-11","59","2016-07-08","360","Y","Y","Screening","0","2015-07-15","1","Serum","Magnesium (mmol/L)","1.03046180421843","0.62","0.99"
"01-013","Site 01","01","40","F","White","Treatment A","TRTA","Ongoing","2015-07-15","2016-06-08","330","Y","1","2015-09-11","59","2016-07-08","360","Y","Y","Screening","0","2015-07-15","1","Serum","Potassium (mmol/L)","4.67474017852523","3.5","5"
"01-013","Site 01","01","40","F","White","Treatment A","TRTA","Ongoing","2015-07-15","2016-06-08","330","Y","1","2015-09-11","59","2016-07-08","360","Y","Y","Screening","0","2015-07-15","1","Serum","Sodium (mmol/L)","140.061961580653","136","145"
"01-013","Site 01","01","40","F","White","Treatment A","TRTA","Ongoing","2015-07-15","2016-06-08","330","Y","1","2015-09-11","59","2016-07-08","360","Y","Y","Screening","0","2015-07-15","1","Serum","Total Bilirubin (μmol/L)","11.4873680683192","5.1","20.5"
"01-013","Site 01","01","40","F","White","Treatment A","TRTA","Ongoing","2015-07-15","2016-06-08","330","Y","1","2015-09-11","59","2016-07-08","360","Y","Y","Visit 1","1","2015-09-11","59","Blood","Platelet count (x 109/L)","246.104899216653","150","350"
"01-013","Site 01","01","40","F","White","Treatment A","TRTA","Ongoing","2015-07-15","2016-06-08","330","Y","1","2015-09-11","59","2016-07-08","360","Y","Y","Visit 1","1","2015-09-11","59","Blood","RBC count (x 1012 cells/L)","5.51019003020005","4.2","5.9"
"01-013","Site 01","01","40","F","White","Treatment A","TRTA","Ongoing","2015-07-15","2016-06-08","330","Y","1","2015-09-11","59","2016-07-08","360","Y","Y","Visit 1","1","2015-09-11","59","Blood","WBC count (x 109 cells/L)","0","4.5","11"
"01-013","Site 01","01","40","F","White","Treatment A","TRTA","Ongoing","2015-07-15","2016-06-08","330","Y","1","2015-09-11","59","2016-07-08","360","Y","Y","Visit 1","1","2015-09-11","59","Serum","Albumin (g/L)","44.5820817782363","35","55"
"01-013","Site 01","01","40","F","White","Treatment A","TRTA","Ongoing","2015-07-15","2016-06-08","330","Y","1","2015-09-11","59","2016-07-08","360","Y","Y","Visit 1","1","2015-09-11","59","Serum","Alkaline phosphatase (ALP) (μkat/L)","","0.5","1.5"
"01-013","Site 01","01","40","F","White","Treatment A","TRTA","Ongoing","2015-07-15","2016-06-08","330","Y","1","2015-09-11","59","2016-07-08","360","Y","Y","Visit 1","1","2015-09-11","59","Serum","Aminotransferase, alanine (ALT) (pkat/L)","0.480864529477909","0","0.58"
"01-013","Site 01","01","40","F","White","Treatment A","TRTA","Ongoing","2015-07-15","2016-06-08","330","Y","1","2015-09-11","59","2016-07-08","360","Y","Y","Visit 1","1","2015-09-11","59","Serum","Aminotransferase, aspartate (AST) (pkat/L)","0","0","0.58"
"01-013","Site 01","01","40","F","White","Treatment A","TRTA","Ongoing","2015-07-15","2016-06-08","330","Y","1","2015-09-11","59","2016-07-08","360","Y","Y","Visit 1","1","2015-09-11","59","Serum","Calcium (mmol/L)","","2.2","2.6"
"01-013","Site 01","01","40","F","White","Treatment A","TRTA","Ongoing","2015-07-15","2016-06-08","330","Y","1","2015-09-11","59","2016-07-08","360","Y","Y","Visit 1","1","2015-09-11","59","Serum","Chloride (mmol/L)","98.7870255474392","98","106"
"01-013","Site 01","01","40","F","White","Treatment A","TRTA","Ongoing","2015-07-15","2016-06-08","330","Y","1","2015-09-11","59","2016-07-08","360","Y","Y","Visit 1","1","2015-09-11","59","Serum","Creatinine (μmol/L)","67.8986845806728","61.9","115"
"01-013","Site 01","01","40","F","White","Treatment A","TRTA","Ongoing","2015-07-15","2016-06-08","330","Y","1","2015-09-11","59","2016-07-08","360","Y","Y","Visit 1","1","2015-09-11","59","Serum","Direct Bilirubin (μmol/L)","7.63824382581563","0","5.1"
"01-013","Site 01","01","40","F","White","Treatment A","TRTA","Ongoing","2015-07-15","2016-06-08","330","Y","1","2015-09-11","59","2016-07-08","360","Y","Y","Visit 1","1","2015-09-11","59","Serum","IgE (mg/L)","0.140702452256999","0.1","0.4"
"01-013","Site 01","01","40","F","White","Treatment A","TRTA","Ongoing","2015-07-15","2016-06-08","330","Y","1","2015-09-11","59","2016-07-08","360","Y","Y","Visit 1","1","2015-09-11","59","Serum","Magnesium (mmol/L)","0.648739400502981","0.62","0.99"
"01-013","Site 01","01","40","F","White","Treatment A","TRTA","Ongoing","2015-07-15","2016-06-08","330","Y","1","2015-09-11","59","2016-07-08","360","Y","Y","Visit 1","1","2015-09-11","59","Serum","Potassium (mmol/L)","3.531828065982","3.5","5"
"01-013","Site 01","01","40","F","White","Treatment A","TRTA","Ongoing","2015-07-15","2016-06-08","330","Y","1","2015-09-11","59","2016-07-08","360","Y","Y","Visit 1","1","2015-09-11","59","Serum","Sodium (mmol/L)","139.675004038886","136","145"
"01-013","Site 01","01","40","F","White","Treatment A","TRTA","Ongoing","2015-07-15","2016-06-08","330","Y","1","2015-09-11","59","2016-07-08","360","Y","Y","Visit 1","1","2015-09-11","59","Serum","Total Bilirubin (μmol/L)","0","5.1","20.5"
"01-013","Site 01","01","40","F","White","Treatment A","TRTA","Ongoing","2015-07-15","2016-06-08","330","Y","1","2015-09-11","59","2016-07-08","360","Y","Y","Visit 2","2","2015-10-27","105","Blood","Platelet count (x 109/L)","119.617626360633","150","350"
"01-013","Site 01","01","40","F","White","Treatment A","TRTA","Ongoing","2015-07-15","2016-06-08","330","Y","1","2015-09-11","59","2016-07-08","360","Y","Y","Visit 2","2","2015-10-27","105","Blood","RBC count (x 1012 cells/L)","5.94202306198192","4.2","5.9"
"01-013","Site 01","01","40","F","White","Treatment A","TRTA","Ongoing","2015-07-15","2016-06-08","330","Y","1","2015-09-11","59","2016-07-08","360","Y","Y","Visit 2","2","2015-10-27","105","Blood","WBC count (x 109 cells/L)","5.56455627049745","4.5","11"
"01-013","Site 01","01","40","F","White","Treatment A","TRTA","Ongoing","2015-07-15","2016-06-08","330","Y","1","2015-09-11","59","2016-07-08","360","Y","Y","Visit 2","2","2015-10-27","105","Serum","Albumin (g/L)","52.6777892269523","35","55"
"01-013","Site 01","01","40","F","White","Treatment A","TRTA","Ongoing","2015-07-15","2016-06-08","330","Y","1","2015-09-11","59","2016-07-08","360","Y","Y","Visit 2","2","2015-10-27","105","Serum","Alkaline phosphatase (ALP) (μkat/L)","0.987422314902211","0.5","1.5"
"01-013","Site 01","01","40","F","White","Treatment A","TRTA","Ongoing","2015-07-15","2016-06-08","330","Y","1","2015-09-11","59","2016-07-08","360","Y","Y","Visit 2","2","2015-10-27","105","Serum","Aminotransferase, alanine (ALT) (pkat/L)","0","0","0.58"
"01-013","Site 01","01","40","F","White","Treatment A","TRTA","Ongoing","2015-07-15","2016-06-08","330","Y","1","2015-09-11","59","2016-07-08","360","Y","Y","Visit 2","2","2015-10-27","105","Serum","Aminotransferase, aspartate (AST) (pkat/L)","","0","0.58"
"01-013","Site 01","01","40","F","White","Treatment A","TRTA","Ongoing","2015-07-15","2016-06-08","330","Y","1","2015-09-11","59","2016-07-08","360","Y","Y","Visit 2","2","2015-10-27","105","Serum","Calcium (mmol/L)","2.35240296867047","2.2","2.6"
"01-013","Site 01","01","40","F","White","Treatment A","TRTA","Ongoing","2015-07-15","2016-06-08","330","Y","1","2015-09-11","59","2016-07-08","360","Y","Y","Visit 2","2","2015-10-27","105","Serum","Chloride (mmol/L)","","98","106"
"01-013","Site 01","01","40","F","White","Treatment A","TRTA","Ongoing","2015-07-15","2016-06-08","330","Y","1","2015-09-11","59","2016-07-08","360","Y","Y","Visit 2","2","2015-10-27","105","Serum","Creatinine (μmol/L)","47.4056449335471","61.9","115"
"01-013","Site 01","01","40","F","White","Treatment A","TRTA","Ongoing","2015-07-15","2016-06-08","330","Y","1","2015-09-11","59","2016-07-08","360","Y","Y","Visit 2","2","2015-10-27","105","Serum","Direct Bilirubin (μmol/L)","0","0","5.1"
"01-013","Site 01","01","40","F","White","Treatment A","TRTA","Ongoing","2015-07-15","2016-06-08","330","Y","1","2015-09-11","59","2016-07-08","360","Y","Y","Visit 2","2","2015-10-27","105","Serum","IgE (mg/L)","0.32964162468211","0.1","0.4"
"01-013","Site 01","01","40","F","White","Treatment A","TRTA","Ongoing","2015-07-15","2016-06-08","330","Y","1","2015-09-11","59","2016-07-08","360","Y","Y","Visit 2","2","2015-10-27","105","Serum","Magnesium (mmol/L)","0.907780847984225","0.62","0.99"
"01-013","Site 01","01","40","F","White","Treatment A","TRTA","Ongoing","2015-07-15","2016-06-08","330","Y","1","2015-09-11","59","2016-07-08","360","Y","Y","Visit 2","2","2015-10-27","105","Serum","Potassium (mmol/L)","3.68806573069659","3.5","5"
"01-013","Site 01","01","40","F","White","Treatment A","TRTA","Ongoing","2015-07-15","2016-06-08","330","Y","1","2015-09-11","59","2016-07-08","360","Y","Y","Visit 2","2","2015-10-27","105","Serum","Sodium (mmol/L)","141.286672506985","136","145"
"01-013","Site 01","01","40","F","White","Treatment A","TRTA","Ongoing","2015-07-15","2016-06-08","330","Y","1","2015-09-11","59","2016-07-08","360","Y","Y","Visit 2","2","2015-10-27","105","Serum","Total Bilirubin (μmol/L)","8.54791691772796","5.1","20.5"
"01-013","Site 01","01","40","F","White","Treatment A","TRTA","Ongoing","2015-07-15","2016-06-08","330","Y","1","2015-09-11","59","2016-07-08","360","Y","Y","Visit 3","3","2016-01-03","173","Blood","Platelet count (x 109/L)","264.739919876927","150","350"
"01-013","Site 01","01","40","F","White","Treatment A","TRTA","Ongoing","2015-07-15","2016-06-08","330","Y","1","2015-09-11","59","2016-07-08","360","Y","Y","Visit 3","3","2016-01-03","173","Blood","RBC count (x 1012 cells/L)","6.3145445382636","4.2","5.9"
"01-013","Site 01","01","40","F","White","Treatment A","TRTA","Ongoing","2015-07-15","2016-06-08","330","Y","1","2015-09-11","59","2016-07-08","360","Y","Y","Visit 3","3","2016-01-03","173","Blood","WBC count (x 109 cells/L)","5.50744759172471","4.5","11"
"01-013","Site 01","01","40","F","White","Treatment A","TRTA","Ongoing","2015-07-15","2016-06-08","330","Y","1","2015-09-11","59","2016-07-08","360","Y","Y","Visit 3","3","2016-01-03","173","Serum","Albumin (g/L)","41.5270331239699","35","55"
"01-013","Site 01","01","40","F","White","Treatment A","TRTA","Ongoing","2015-07-15","2016-06-08","330","Y","1","2015-09-11","59","2016-07-08","360","Y","Y","Visit 3","3","2016-01-03","173","Serum","Alkaline phosphatase (ALP) (μkat/L)","1.42582550545413","0.5","1.5"
"01-013","Site 01","01","40","F","White","Treatment A","TRTA","Ongoing","2015-07-15","2016-06-08","330","Y","1","2015-09-11","59","2016-07-08","360","Y","Y","Visit 3","3","2016-01-03","173","Serum","Aminotransferase, alanine (ALT) (pkat/L)","0.0889390970023709","0","0.58"
"01-013","Site 01","01","40","F","White","Treatment A","TRTA","Ongoing","2015-07-15","2016-06-08","330","Y","1","2015-09-11","59","2016-07-08","360","Y","Y","Visit 3","3","2016-01-03","173","Serum","Aminotransferase, aspartate (AST) (pkat/L)","0","0","0.58"
"01-013","Site 01","01","40","F","White","Treatment A","TRTA","Ongoing","2015-07-15","2016-06-08","330","Y","1","2015-09-11","59","2016-07-08","360","Y","Y","Visit 3","3","2016-01-03","173","Serum","Calcium (mmol/L)","1.9961475673778","2.2","2.6"
"01-013","Site 01","01","40","F","White","Treatment A","TRTA","Ongoing","2015-07-15","2016-06-08","330","Y","1","2015-09-11","59","2016-07-08","360","Y","Y","Visit 3","3","2016-01-03","173","Serum","Chloride (mmol/L)","","98","106"
"01-013","Site 01","01","40","F","White","Treatment A","TRTA","Ongoing","2015-07-15","2016-06-08","330","Y","1","2015-09-11","59","2016-07-08","360","Y","Y","Visit 3","3","2016-01-03","173","Serum","Creatinine (μmol/L)","58.3690933886268","61.9","115"
"01-013","Site 01","01","40","F","White","Treatment A","TRTA","Ongoing","2015-07-15","2016-06-08","330","Y","1","2015-09-11","59","2016-07-08","360","Y","Y","Visit 3","3","2016-01-03","173","Serum","Direct Bilirubin (μmol/L)","0.173061044992896","0","5.1"
"01-013","Site 01","01","40","F","White","Treatment A","TRTA","Ongoing","2015-07-15","2016-06-08","330","Y","1","2015-09-11","59","2016-07-08","360","Y","Y","Visit 3","3","2016-01-03","173","Serum","IgE (mg/L)","0.314668581985684","0.1","0.4"
"01-013","Site 01","01","40","F","White","Treatment A","TRTA","Ongoing","2015-07-15","2016-06-08","330","Y","1","2015-09-11","59","2016-07-08","360","Y","Y","Visit 3","3","2016-01-03","173","Serum","Magnesium (mmol/L)","0.766427967296359","0.62","0.99"
"01-013","Site 01","01","40","F","White","Treatment A","TRTA","Ongoing","2015-07-15","2016-06-08","330","Y","1","2015-09-11","59","2016-07-08","360","Y","Y","Visit 3","3","2016-01-03","173","Serum","Potassium (mmol/L)","5.61433087408665","3.5","5"
"01-013","Site 01","01","40","F","White","Treatment A","TRTA","Ongoing","2015-07-15","2016-06-08","330","Y","1","2015-09-11","59","2016-07-08","360","Y","Y","Visit 3","3","2016-01-03","173","Serum","Sodium (mmol/L)","136.339439958173","136","145"
"01-013","Site 01","01","40","F","White","Treatment A","TRTA","Ongoing","2015-07-15","2016-06-08","330","Y","1","2015-09-11","59","2016-07-08","360","Y","Y","Visit 3","3","2016-01-03","173","Serum","Total Bilirubin (μmol/L)","13.847513458568","5.1","20.5"
"01-013","Site 01","01","40","F","White","Treatment A","TRTA","Ongoing","2015-07-15","2016-06-08","330","Y","1","2015-09-11","59","2016-07-08","360","Y","Y","Visit 4","4","2016-02-23","224","Blood","Platelet count (x 109/L)","","150","350"
"01-013","Site 01","01","40","F","White","Treatment A","TRTA","Ongoing","2015-07-15","2016-06-08","330","Y","1","2015-09-11","59","2016-07-08","360","Y","Y","Visit 4","4","2016-02-23","224","Blood","RBC count (x 1012 cells/L)","","4.2","5.9"
"01-013","Site 01","01","40","F","White","Treatment A","TRTA","Ongoing","2015-07-15","2016-06-08","330","Y","1","2015-09-11","59","2016-07-08","360","Y","Y","Visit 4","4","2016-02-23","224","Blood","WBC count (x 109 cells/L)","","4.5","11"
"01-013","Site 01","01","40","F","White","Treatment A","TRTA","Ongoing","2015-07-15","2016-06-08","330","Y","1","2015-09-11","59","2016-07-08","360","Y","Y","Visit 4","4","2016-02-23","224","Serum","Albumin (g/L)","28.5333407269246","35","55"
"01-013","Site 01","01","40","F","White","Treatment A","TRTA","Ongoing","2015-07-15","2016-06-08","330","Y","1","2015-09-11","59","2016-07-08","360","Y","Y","Visit 4","4","2016-02-23","224","Serum","Alkaline phosphatase (ALP) (μkat/L)","","0.5","1.5"
"01-013","Site 01","01","40","F","White","Treatment A","TRTA","Ongoing","2015-07-15","2016-06-08","330","Y","1","2015-09-11","59","2016-07-08","360","Y","Y","Visit 4","4","2016-02-23","224","Serum","Aminotransferase, alanine (ALT) (pkat/L)","","0","0.58"
"01-013","Site 01","01","40","F","White","Treatment A","TRTA","Ongoing","2015-07-15","2016-06-08","330","Y","1","2015-09-11","59","2016-07-08","360","Y","Y","Visit 4","4","2016-02-23","224","Serum","Aminotransferase, aspartate (AST) (pkat/L)","0.315975609806982","0","0.58"
"01-013","Site 01","01","40","F","White","Treatment A","TRTA","Ongoing","2015-07-15","2016-06-08","330","Y","1","2015-09-11","59","2016-07-08","360","Y","Y","Visit 4","4","2016-02-23","224","Serum","Calcium (mmol/L)","2.38847905847324","2.2","2.6"
"01-013","Site 01","01","40","F","White","Treatment A","TRTA","Ongoing","2015-07-15","2016-06-08","330","Y","1","2015-09-11","59","2016-07-08","360","Y","Y","Visit 4","4","2016-02-23","224","Serum","Chloride (mmol/L)","100.884475598692","98","106"
"01-013","Site 01","01","40","F","White","Treatment A","TRTA","Ongoing","2015-07-15","2016-06-08","330","Y","1","2015-09-11","59","2016-07-08","360","Y","Y","Visit 4","4","2016-02-23","224","Serum","Creatinine (μmol/L)","95.5695188171474","61.9","115"
"01-013","Site 01","01","40","F","White","Treatment A","TRTA","Ongoing","2015-07-15","2016-06-08","330","Y","1","2015-09-11","59","2016-07-08","360","Y","Y","Visit 4","4","2016-02-23","224","Serum","Direct Bilirubin (μmol/L)","2.7821037695051","0","5.1"
"01-013","Site 01","01","40","F","White","Treatment A","TRTA","Ongoing","2015-07-15","2016-06-08","330","Y","1","2015-09-11","59","2016-07-08","360","Y","Y","Visit 4","4","2016-02-23","224","Serum","IgE (mg/L)","0.112381093102753","0.1","0.4"
"01-013","Site 01","01","40","F","White","Treatment A","TRTA","Ongoing","2015-07-15","2016-06-08","330","Y","1","2015-09-11","59","2016-07-08","360","Y","Y","Visit 4","4","2016-02-23","224","Serum","Magnesium (mmol/L)","0.787674127341477","0.62","0.99"
"01-013","Site 01","01","40","F","White","Treatment A","TRTA","Ongoing","2015-07-15","2016-06-08","330","Y","1","2015-09-11","59","2016-07-08","360","Y","Y","Visit 4","4","2016-02-23","224","Serum","Potassium (mmol/L)","3.71827936197375","3.5","5"
"01-013","Site 01","01","40","F","White","Treatment A","TRTA","Ongoing","2015-07-15","2016-06-08","330","Y","1","2015-09-11","59","2016-07-08","360","Y","Y","Visit 4","4","2016-02-23","224","Serum","Sodium (mmol/L)","","136","145"
"01-013","Site 01","01","40","F","White","Treatment A","TRTA","Ongoing","2015-07-15","2016-06-08","330","Y","1","2015-09-11","59","2016-07-08","360","Y","Y","Visit 4","4","2016-02-23","224","Serum","Total Bilirubin (μmol/L)","27.3464143400716","5.1","20.5"
"01-013","Site 01","01","40","F","White","Treatment A","TRTA","Ongoing","2015-07-15","2016-06-08","330","Y","1","2015-09-11","59","2016-07-08","360","Y","Y","Unscheduled 4.1","4.1","2016-03-02","232","Blood","Platelet count (x 109/L)","113.686521932303","150","350"
"01-013","Site 01","01","40","F","White","Treatment A","TRTA","Ongoing","2015-07-15","2016-06-08","330","Y","1","2015-09-11","59","2016-07-08","360","Y","Y","Unscheduled 4.1","4.1","2016-03-02","232","Blood","RBC count (x 1012 cells/L)","5.42991875324651","4.2","5.9"
"01-013","Site 01","01","40","F","White","Treatment A","TRTA","Ongoing","2015-07-15","2016-06-08","330","Y","1","2015-09-11","59","2016-07-08","360","Y","Y","Unscheduled 4.1","4.1","2016-03-02","232","Blood","WBC count (x 109 cells/L)","8.14532931539884","4.5","11"
"01-013","Site 01","01","40","F","White","Treatment A","TRTA","Ongoing","2015-07-15","2016-06-08","330","Y","1","2015-09-11","59","2016-07-08","360","Y","Y","Unscheduled 4.1","4.1","2016-03-02","232","Serum","Albumin (g/L)","76.7621892537589","35","55"
"01-013","Site 01","01","40","F","White","Treatment A","TRTA","Ongoing","2015-07-15","2016-06-08","330","Y","1","2015-09-11","59","2016-07-08","360","Y","Y","Unscheduled 4.1","4.1","2016-03-02","232","Serum","Alkaline phosphatase (ALP) (μkat/L)","0.424775811283336","0.5","1.5"
"01-013","Site 01","01","40","F","White","Treatment A","TRTA","Ongoing","2015-07-15","2016-06-08","330","Y","1","2015-09-11","59","2016-07-08","360","Y","Y","Unscheduled 4.1","4.1","2016-03-02","232","Serum","Aminotransferase, alanine (ALT) (pkat/L)","0.258432641599254","0","0.58"
"01-013","Site 01","01","40","F","White","Treatment A","TRTA","Ongoing","2015-07-15","2016-06-08","330","Y","1","2015-09-11","59","2016-07-08","360","Y","Y","Unscheduled 4.1","4.1","2016-03-02","232","Serum","Aminotransferase, aspartate (AST) (pkat/L)","0.478588678412311","0","0.58"
"01-013","Site 01","01","40","F","White","Treatment A","TRTA","Ongoing","2015-07-15","2016-06-08","330","Y","1","2015-09-11","59","2016-07-08","360","Y","Y","Unscheduled 4.1","4.1","2016-03-02","232","Serum","Calcium (mmol/L)","2.11839504922422","2.2","2.6"
"01-013","Site 01","01","40","F","White","Treatment A","TRTA","Ongoing","2015-07-15","2016-06-08","330","Y","1","2015-09-11","59","2016-07-08","360","Y","Y","Unscheduled 4.1","4.1","2016-03-02","232","Serum","Chloride (mmol/L)","99.82126176556","98","106"
"01-013","Site 01","01","40","F","White","Treatment A","TRTA","Ongoing","2015-07-15","2016-06-08","330","Y","1","2015-09-11","59","2016-07-08","360","Y","Y","Unscheduled 4.1","4.1","2016-03-02","232","Serum","Creatinine (μmol/L)","91.9480656990301","61.9","115"
"01-013","Site 01","01","40","F","White","Treatment A","TRTA","Ongoing","2015-07-15","2016-06-08","330","Y","1","2015-09-11","59","2016-07-08","360","Y","Y","Unscheduled 4.1","4.1","2016-03-02","232","Serum","Direct Bilirubin (μmol/L)","1.69174728213181","0","5.1"
"01-013","Site 01","01","40","F","White","Treatment A","TRTA","Ongoing","2015-07-15","2016-06-08","330","Y","1","2015-09-11","59","2016-07-08","360","Y","Y","Unscheduled 4.1","4.1","2016-03-02","232","Serum","IgE (mg/L)","0.344809626094944","0.1","0.4"
"01-013","Site 01","01","40","F","White","Treatment A","TRTA","Ongoing","2015-07-15","2016-06-08","330","Y","1","2015-09-11","59","2016-07-08","360","Y","Y","Unscheduled 4.1","4.1","2016-03-02","232","Serum","Magnesium (mmol/L)","1.06097968448812","0.62","0.99"
"01-013","Site 01","01","40","F","White","Treatment A","TRTA","Ongoing","2015-07-15","2016-06-08","330","Y","1","2015-09-11","59","2016-07-08","360","Y","Y","Unscheduled 4.1","4.1","2016-03-02","232","Serum","Potassium (mmol/L)","4.42455990683053","3.5","5"
"01-013","Site 01","01","40","F","White","Treatment A","TRTA","Ongoing","2015-07-15","2016-06-08","330","Y","1","2015-09-11","59","2016-07-08","360","Y","Y","Unscheduled 4.1","4.1","2016-03-02","232","Serum","Sodium (mmol/L)","145.850859543941","136","145"
"01-013","Site 01","01","40","F","White","Treatment A","TRTA","Ongoing","2015-07-15","2016-06-08","330","Y","1","2015-09-11","59","2016-07-08","360","Y","Y","Unscheduled 4.1","4.1","2016-03-02","232","Serum","Total Bilirubin (μmol/L)","17.6582277305605","5.1","20.5"
"01-013","Site 01","01","40","F","White","Treatment A","TRTA","Ongoing","2015-07-15","2016-06-08","330","Y","1","2015-09-11","59","2016-07-08","360","Y","Y","Visit 5","5","2016-04-15","276","Blood","Platelet count (x 109/L)","116.435348656289","150","350"
"01-013","Site 01","01","40","F","White","Treatment A","TRTA","Ongoing","2015-07-15","2016-06-08","330","Y","1","2015-09-11","59","2016-07-08","360","Y","Y","Visit 5","5","2016-04-15","276","Blood","RBC count (x 1012 cells/L)","4.20297456987509","4.2","5.9"
"01-013","Site 01","01","40","F","White","Treatment A","TRTA","Ongoing","2015-07-15","2016-06-08","330","Y","1","2015-09-11","59","2016-07-08","360","Y","Y","Visit 5","5","2016-04-15","276","Blood","WBC count (x 109 cells/L)","10.882152086181","4.5","11"
"01-013","Site 01","01","40","F","White","Treatment A","TRTA","Ongoing","2015-07-15","2016-06-08","330","Y","1","2015-09-11","59","2016-07-08","360","Y","Y","Visit 5","5","2016-04-15","276","Serum","Albumin (g/L)","56.3347194281717","35","55"
"01-013","Site 01","01","40","F","White","Treatment A","TRTA","Ongoing","2015-07-15","2016-06-08","330","Y","1","2015-09-11","59","2016-07-08","360","Y","Y","Visit 5","5","2016-04-15","276","Serum","Alkaline phosphatase (ALP) (μkat/L)","0.246333072216862","0.5","1.5"
"01-013","Site 01","01","40","F","White","Treatment A","TRTA","Ongoing","2015-07-15","2016-06-08","330","Y","1","2015-09-11","59","2016-07-08","360","Y","Y","Visit 5","5","2016-04-15","276","Serum","Aminotransferase, alanine (ALT) (pkat/L)","0.262900991585928","0","0.58"
"01-013","Site 01","01","40","F","White","Treatment A","TRTA","Ongoing","2015-07-15","2016-06-08","330","Y","1","2015-09-11","59","2016-07-08","360","Y","Y","Visit 5","5","2016-04-15","276","Serum","Aminotransferase, aspartate (AST) (pkat/L)","0.177212990614355","0","0.58"
"01-013","Site 01","01","40","F","White","Treatment A","TRTA","Ongoing","2015-07-15","2016-06-08","330","Y","1","2015-09-11","59","2016-07-08","360","Y","Y","Visit 5","5","2016-04-15","276","Serum","Calcium (mmol/L)","2.67830825929582","2.2","2.6"
"01-013","Site 01","01","40","F","White","Treatment A","TRTA","Ongoing","2015-07-15","2016-06-08","330","Y","1","2015-09-11","59","2016-07-08","360","Y","Y","Visit 5","5","2016-04-15","276","Serum","Chloride (mmol/L)","","98","106"
"01-013","Site 01","01","40","F","White","Treatment A","TRTA","Ongoing","2015-07-15","2016-06-08","330","Y","1","2015-09-11","59","2016-07-08","360","Y","Y","Visit 5","5","2016-04-15","276","Serum","Creatinine (μmol/L)","108.505354230132","61.9","115"
"01-013","Site 01","01","40","F","White","Treatment A","TRTA","Ongoing","2015-07-15","2016-06-08","330","Y","1","2015-09-11","59","2016-07-08","360","Y","Y","Visit 5","5","2016-04-15","276","Serum","Direct Bilirubin (μmol/L)","","0","5.1"
"01-013","Site 01","01","40","F","White","Treatment A","TRTA","Ongoing","2015-07-15","2016-06-08","330","Y","1","2015-09-11","59","2016-07-08","360","Y","Y","Visit 5","5","2016-04-15","276","Serum","IgE (mg/L)","0.321888920291902","0.1","0.4"
"01-013","Site 01","01","40","F","White","Treatment A","TRTA","Ongoing","2015-07-15","2016-06-08","330","Y","1","2015-09-11","59","2016-07-08","360","Y","Y","Visit 5","5","2016-04-15","276","Serum","Magnesium (mmol/L)","0.778934472179033","0.62","0.99"
"01-013","Site 01","01","40","F","White","Treatment A","TRTA","Ongoing","2015-07-15","2016-06-08","330","Y","1","2015-09-11","59","2016-07-08","360","Y","Y","Visit 5","5","2016-04-15","276","Serum","Potassium (mmol/L)","4.35831243537953","3.5","5"
"01-013","Site 01","01","40","F","White","Treatment A","TRTA","Ongoing","2015-07-15","2016-06-08","330","Y","1","2015-09-11","59","2016-07-08","360","Y","Y","Visit 5","5","2016-04-15","276","Serum","Sodium (mmol/L)","143.617652285733","136","145"
"01-013","Site 01","01","40","F","White","Treatment A","TRTA","Ongoing","2015-07-15","2016-06-08","330","Y","1","2015-09-11","59","2016-07-08","360","Y","Y","Visit 5","5","2016-04-15","276","Serum","Total Bilirubin (μmol/L)","20.0868860814231","5.1","20.5"
"01-014","Site 01","01","37","M","Black","Treatment A","TRTA","Ongoing","2015-07-24","2016-02-14","206","Y","1","2015-09-17","56","2016-07-21","364","Y","Y","Screening","0","2015-07-24","1","Blood","Platelet count (x 109/L)","267.982350919185","150","350"
"01-014","Site 01","01","37","M","Black","Treatment A","TRTA","Ongoing","2015-07-24","2016-02-14","206","Y","1","2015-09-17","56","2016-07-21","364","Y","Y","Screening","0","2015-07-24","1","Blood","RBC count (x 1012 cells/L)","4.2606566527605","4.2","5.9"
"01-014","Site 01","01","37","M","Black","Treatment A","TRTA","Ongoing","2015-07-24","2016-02-14","206","Y","1","2015-09-17","56","2016-07-21","364","Y","Y","Screening","0","2015-07-24","1","Blood","WBC count (x 109 cells/L)","7.21785337164291","4.5","11"
"01-014","Site 01","01","37","M","Black","Treatment A","TRTA","Ongoing","2015-07-24","2016-02-14","206","Y","1","2015-09-17","56","2016-07-21","364","Y","Y","Screening","0","2015-07-24","1","Serum","Albumin (g/L)","54.4247543180065","35","55"
"01-014","Site 01","01","37","M","Black","Treatment A","TRTA","Ongoing","2015-07-24","2016-02-14","206","Y","1","2015-09-17","56","2016-07-21","364","Y","Y","Screening","0","2015-07-24","1","Serum","Alkaline phosphatase (ALP) (μkat/L)","0.459285738200132","0.5","1.5"
"01-014","Site 01","01","37","M","Black","Treatment A","TRTA","Ongoing","2015-07-24","2016-02-14","206","Y","1","2015-09-17","56","2016-07-21","364","Y","Y","Screening","0","2015-07-24","1","Serum","Aminotransferase, alanine (ALT) (pkat/L)","0.462110712811875","0","0.58"
"01-014","Site 01","01","37","M","Black","Treatment A","TRTA","Ongoing","2015-07-24","2016-02-14","206","Y","1","2015-09-17","56","2016-07-21","364","Y","Y","Screening","0","2015-07-24","1","Serum","Aminotransferase, aspartate (AST) (pkat/L)","0","0","0.58"
"01-014","Site 01","01","37","M","Black","Treatment A","TRTA","Ongoing","2015-07-24","2016-02-14","206","Y","1","2015-09-17","56","2016-07-21","364","Y","Y","Screening","0","2015-07-24","1","Serum","Calcium (mmol/L)","2.07613687706431","2.2","2.6"
"01-014","Site 01","01","37","M","Black","Treatment A","TRTA","Ongoing","2015-07-24","2016-02-14","206","Y","1","2015-09-17","56","2016-07-21","364","Y","Y","Screening","0","2015-07-24","1","Serum","Chloride (mmol/L)","104.783367438116","98","106"
"01-014","Site 01","01","37","M","Black","Treatment A","TRTA","Ongoing","2015-07-24","2016-02-14","206","Y","1","2015-09-17","56","2016-07-21","364","Y","Y","Screening","0","2015-07-24","1","Serum","Creatinine (μmol/L)","94.3817998968779","61.9","115"
"01-014","Site 01","01","37","M","Black","Treatment A","TRTA","Ongoing","2015-07-24","2016-02-14","206","Y","1","2015-09-17","56","2016-07-21","364","Y","Y","Screening","0","2015-07-24","1","Serum","Direct Bilirubin (μmol/L)","0","0","5.1"
"01-014","Site 01","01","37","M","Black","Treatment A","TRTA","Ongoing","2015-07-24","2016-02-14","206","Y","1","2015-09-17","56","2016-07-21","364","Y","Y","Screening","0","2015-07-24","1","Serum","IgE (mg/L)","0.267635757657066","0.1","0.4"
"01-014","Site 01","01","37","M","Black","Treatment A","TRTA","Ongoing","2015-07-24","2016-02-14","206","Y","1","2015-09-17","56","2016-07-21","364","Y","Y","Screening","0","2015-07-24","1","Serum","Magnesium (mmol/L)","0.809909140439191","0.62","0.99"
"01-014","Site 01","01","37","M","Black","Treatment A","TRTA","Ongoing","2015-07-24","2016-02-14","206","Y","1","2015-09-17","56","2016-07-21","364","Y","Y","Screening","0","2015-07-24","1","Serum","Potassium (mmol/L)","4.74701063289354","3.5","5"
"01-014","Site 01","01","37","M","Black","Treatment A","TRTA","Ongoing","2015-07-24","2016-02-14","206","Y","1","2015-09-17","56","2016-07-21","364","Y","Y","Screening","0","2015-07-24","1","Serum","Sodium (mmol/L)","140.57298778291","136","145"
"01-014","Site 01","01","37","M","Black","Treatment A","TRTA","Ongoing","2015-07-24","2016-02-14","206","Y","1","2015-09-17","56","2016-07-21","364","Y","Y","Screening","0","2015-07-24","1","Serum","Total Bilirubin (μmol/L)","7.90717311986534","5.1","20.5"
"01-014","Site 01","01","37","M","Black","Treatment A","TRTA","Ongoing","2015-07-24","2016-02-14","206","Y","1","2015-09-17","56","2016-07-21","364","Y","Y","Visit 1","1","2015-09-17","56","Blood","Platelet count (x 109/L)","374.79160801141","150","350"
"01-014","Site 01","01","37","M","Black","Treatment A","TRTA","Ongoing","2015-07-24","2016-02-14","206","Y","1","2015-09-17","56","2016-07-21","364","Y","Y","Visit 1","1","2015-09-17","56","Blood","RBC count (x 1012 cells/L)","6.84425580001966","4.2","5.9"
"01-014","Site 01","01","37","M","Black","Treatment A","TRTA","Ongoing","2015-07-24","2016-02-14","206","Y","1","2015-09-17","56","2016-07-21","364","Y","Y","Visit 1","1","2015-09-17","56","Blood","WBC count (x 109 cells/L)","5.55223696517204","4.5","11"
"01-014","Site 01","01","37","M","Black","Treatment A","TRTA","Ongoing","2015-07-24","2016-02-14","206","Y","1","2015-09-17","56","2016-07-21","364","Y","Y","Visit 1","1","2015-09-17","56","Serum","Albumin (g/L)","35.8239056335028","35","55"
"01-014","Site 01","01","37","M","Black","Treatment A","TRTA","Ongoing","2015-07-24","2016-02-14","206","Y","1","2015-09-17","56","2016-07-21","364","Y","Y","Visit 1","1","2015-09-17","56","Serum","Alkaline phosphatase (ALP) (μkat/L)","1.70566598918395","0.5","1.5"
"01-014","Site 01","01","37","M","Black","Treatment A","TRTA","Ongoing","2015-07-24","2016-02-14","206","Y","1","2015-09-17","56","2016-07-21","364","Y","Y","Visit 1","1","2015-09-17","56","Serum","Aminotransferase, alanine (ALT) (pkat/L)","0.144609845266858","0","0.58"
"01-014","Site 01","01","37","M","Black","Treatment A","TRTA","Ongoing","2015-07-24","2016-02-14","206","Y","1","2015-09-17","56","2016-07-21","364","Y","Y","Visit 1","1","2015-09-17","56","Serum","Aminotransferase, aspartate (AST) (pkat/L)","0.276862183715109","0","0.58"
"01-014","Site 01","01","37","M","Black","Treatment A","TRTA","Ongoing","2015-07-24","2016-02-14","206","Y","1","2015-09-17","56","2016-07-21","364","Y","Y","Visit 1","1","2015-09-17","56","Serum","Calcium (mmol/L)","","2.2","2.6"
"01-014","Site 01","01","37","M","Black","Treatment A","TRTA","Ongoing","2015-07-24","2016-02-14","206","Y","1","2015-09-17","56","2016-07-21","364","Y","Y","Visit 1","1","2015-09-17","56","Serum","Chloride (mmol/L)","97.1974631314077","98","106"
"01-014","Site 01","01","37","M","Black","Treatment A","TRTA","Ongoing","2015-07-24","2016-02-14","206","Y","1","2015-09-17","56","2016-07-21","364","Y","Y","Visit 1","1","2015-09-17","56","Serum","Creatinine (μmol/L)","89.0707439584603","61.9","115"
"01-014","Site 01","01","37","M","Black","Treatment A","TRTA","Ongoing","2015-07-24","2016-02-14","206","Y","1","2015-09-17","56","2016-07-21","364","Y","Y","Visit 1","1","2015-09-17","56","Serum","Direct Bilirubin (μmol/L)","4.96095024956007","0","5.1"
"01-014","Site 01","01","37","M","Black","Treatment A","TRTA","Ongoing","2015-07-24","2016-02-14","206","Y","1","2015-09-17","56","2016-07-21","364","Y","Y","Visit 1","1","2015-09-17","56","Serum","IgE (mg/L)","","0.1","0.4"
"01-014","Site 01","01","37","M","Black","Treatment A","TRTA","Ongoing","2015-07-24","2016-02-14","206","Y","1","2015-09-17","56","2016-07-21","364","Y","Y","Visit 1","1","2015-09-17","56","Serum","Magnesium (mmol/L)","0.695836698962725","0.62","0.99"
"01-014","Site 01","01","37","M","Black","Treatment A","TRTA","Ongoing","2015-07-24","2016-02-14","206","Y","1","2015-09-17","56","2016-07-21","364","Y","Y","Visit 1","1","2015-09-17","56","Serum","Potassium (mmol/L)","3.37829065401801","3.5","5"
"01-014","Site 01","01","37","M","Black","Treatment A","TRTA","Ongoing","2015-07-24","2016-02-14","206","Y","1","2015-09-17","56","2016-07-21","364","Y","Y","Visit 1","1","2015-09-17","56","Serum","Sodium (mmol/L)","140.800509611541","136","145"
"01-014","Site 01","01","37","M","Black","Treatment A","TRTA","Ongoing","2015-07-24","2016-02-14","206","Y","1","2015-09-17","56","2016-07-21","364","Y","Y","Visit 1","1","2015-09-17","56","Serum","Total Bilirubin (μmol/L)","16.5150061505764","5.1","20.5"
"01-014","Site 01","01","37","M","Black","Treatment A","TRTA","Ongoing","2015-07-24","2016-02-14","206","Y","1","2015-09-17","56","2016-07-21","364","Y","Y","Visit 2","2","2015-11-14","114","Blood","Platelet count (x 109/L)","234.213651110506","150","350"
"01-014","Site 01","01","37","M","Black","Treatment A","TRTA","Ongoing","2015-07-24","2016-02-14","206","Y","1","2015-09-17","56","2016-07-21","364","Y","Y","Visit 2","2","2015-11-14","114","Blood","RBC count (x 1012 cells/L)","3.40086322471893","4.2","5.9"
"01-014","Site 01","01","37","M","Black","Treatment A","TRTA","Ongoing","2015-07-24","2016-02-14","206","Y","1","2015-09-17","56","2016-07-21","364","Y","Y","Visit 2","2","2015-11-14","114","Blood","WBC count (x 109 cells/L)","7.81138971371335","4.5","11"
"01-014","Site 01","01","37","M","Black","Treatment A","TRTA","Ongoing","2015-07-24","2016-02-14","206","Y","1","2015-09-17","56","2016-07-21","364","Y","Y","Visit 2","2","2015-11-14","114","Serum","Albumin (g/L)","52.8316273601826","35","55"
"01-014","Site 01","01","37","M","Black","Treatment A","TRTA","Ongoing","2015-07-24","2016-02-14","206","Y","1","2015-09-17","56","2016-07-21","364","Y","Y","Visit 2","2","2015-11-14","114","Serum","Alkaline phosphatase (ALP) (μkat/L)","0.670520717874627","0.5","1.5"
"01-014","Site 01","01","37","M","Black","Treatment A","TRTA","Ongoing","2015-07-24","2016-02-14","206","Y","1","2015-09-17","56","2016-07-21","364","Y","Y","Visit 2","2","2015-11-14","114","Serum","Aminotransferase, alanine (ALT) (pkat/L)","0.202102538702251","0","0.58"
"01-014","Site 01","01","37","M","Black","Treatment A","TRTA","Ongoing","2015-07-24","2016-02-14","206","Y","1","2015-09-17","56","2016-07-21","364","Y","Y","Visit 2","2","2015-11-14","114","Serum","Aminotransferase, aspartate (AST) (pkat/L)","","0","0.58"
"01-014","Site 01","01","37","M","Black","Treatment A","TRTA","Ongoing","2015-07-24","2016-02-14","206","Y","1","2015-09-17","56","2016-07-21","364","Y","Y","Visit 2","2","2015-11-14","114","Serum","Calcium (mmol/L)","2.6047520759922","2.2","2.6"
"01-014","Site 01","01","37","M","Black","Treatment A","TRTA","Ongoing","2015-07-24","2016-02-14","206","Y","1","2015-09-17","56","2016-07-21","364","Y","Y","Visit 2","2","2015-11-14","114","Serum","Chloride (mmol/L)","103.607370469467","98","106"
"01-014","Site 01","01","37","M","Black","Treatment A","TRTA","Ongoing","2015-07-24","2016-02-14","206","Y","1","2015-09-17","56","2016-07-21","364","Y","Y","Visit 2","2","2015-11-14","114","Serum","Creatinine (μmol/L)","81.2771164993477","61.9","115"
"01-014","Site 01","01","37","M","Black","Treatment A","TRTA","Ongoing","2015-07-24","2016-02-14","206","Y","1","2015-09-17","56","2016-07-21","364","Y","Y","Visit 2","2","2015-11-14","114","Serum","Direct Bilirubin (μmol/L)","7.90747496724615","0","5.1"
"01-014","Site 01","01","37","M","Black","Treatment A","TRTA","Ongoing","2015-07-24","2016-02-14","206","Y","1","2015-09-17","56","2016-07-21","364","Y","Y","Visit 2","2","2015-11-14","114","Serum","IgE (mg/L)","0.239658790921555","0.1","0.4"
"01-014","Site 01","01","37","M","Black","Treatment A","TRTA","Ongoing","2015-07-24","2016-02-14","206","Y","1","2015-09-17","56","2016-07-21","364","Y","Y","Visit 2","2","2015-11-14","114","Serum","Magnesium (mmol/L)","0.738644307823301","0.62","0.99"
"01-014","Site 01","01","37","M","Black","Treatment A","TRTA","Ongoing","2015-07-24","2016-02-14","206","Y","1","2015-09-17","56","2016-07-21","364","Y","Y","Visit 2","2","2015-11-14","114","Serum","Potassium (mmol/L)","4.95024381375327","3.5","5"
"01-014","Site 01","01","37","M","Black","Treatment A","TRTA","Ongoing","2015-07-24","2016-02-14","206","Y","1","2015-09-17","56","2016-07-21","364","Y","Y","Visit 2","2","2015-11-14","114","Serum","Sodium (mmol/L)","141.93788466341","136","145"
"01-014","Site 01","01","37","M","Black","Treatment A","TRTA","Ongoing","2015-07-24","2016-02-14","206","Y","1","2015-09-17","56","2016-07-21","364","Y","Y","Visit 2","2","2015-11-14","114","Serum","Total Bilirubin (μmol/L)","0","5.1","20.5"
"01-014","Site 01","01","37","M","Black","Treatment A","TRTA","Ongoing","2015-07-24","2016-02-14","206","Y","1","2015-09-17","56","2016-07-21","364","Y","Y","Visit 3","3","2016-01-09","170","Blood","Platelet count (x 109/L)","238.308943559446","150","350"
"01-014","Site 01","01","37","M","Black","Treatment A","TRTA","Ongoing","2015-07-24","2016-02-14","206","Y","1","2015-09-17","56","2016-07-21","364","Y","Y","Visit 3","3","2016-01-09","170","Blood","RBC count (x 1012 cells/L)","5.27347529713308","4.2","5.9"
"01-014","Site 01","01","37","M","Black","Treatment A","TRTA","Ongoing","2015-07-24","2016-02-14","206","Y","1","2015-09-17","56","2016-07-21","364","Y","Y","Visit 3","3","2016-01-09","170","Blood","WBC count (x 109 cells/L)","7.11957909796345","4.5","11"
"01-014","Site 01","01","37","M","Black","Treatment A","TRTA","Ongoing","2015-07-24","2016-02-14","206","Y","1","2015-09-17","56","2016-07-21","364","Y","Y","Visit 3","3","2016-01-09","170","Serum","Albumin (g/L)","53.1240629475315","35","55"
"01-014","Site 01","01","37","M","Black","Treatment A","TRTA","Ongoing","2015-07-24","2016-02-14","206","Y","1","2015-09-17","56","2016-07-21","364","Y","Y","Visit 3","3","2016-01-09","170","Serum","Alkaline phosphatase (ALP) (μkat/L)","1.21455825598498","0.5","1.5"
"01-014","Site 01","01","37","M","Black","Treatment A","TRTA","Ongoing","2015-07-24","2016-02-14","206","Y","1","2015-09-17","56","2016-07-21","364","Y","Y","Visit 3","3","2016-01-09","170","Serum","Aminotransferase, alanine (ALT) (pkat/L)","0.126134711620434","0","0.58"
"01-014","Site 01","01","37","M","Black","Treatment A","TRTA","Ongoing","2015-07-24","2016-02-14","206","Y","1","2015-09-17","56","2016-07-21","364","Y","Y","Visit 3","3","2016-01-09","170","Serum","Aminotransferase, aspartate (AST) (pkat/L)","0","0","0.58"
"01-014","Site 01","01","37","M","Black","Treatment A","TRTA","Ongoing","2015-07-24","2016-02-14","206","Y","1","2015-09-17","56","2016-07-21","364","Y","Y","Visit 3","3","2016-01-09","170","Serum","Calcium (mmol/L)","2.58673567408203","2.2","2.6"
"01-014","Site 01","01","37","M","Black","Treatment A","TRTA","Ongoing","2015-07-24","2016-02-14","206","Y","1","2015-09-17","56","2016-07-21","364","Y","Y","Visit 3","3","2016-01-09","170","Serum","Chloride (mmol/L)","","98","106"
"01-014","Site 01","01","37","M","Black","Treatment A","TRTA","Ongoing","2015-07-24","2016-02-14","206","Y","1","2015-09-17","56","2016-07-21","364","Y","Y","Visit 3","3","2016-01-09","170","Serum","Creatinine (μmol/L)","48.8452337575893","61.9","115"
"01-014","Site 01","01","37","M","Black","Treatment A","TRTA","Ongoing","2015-07-24","2016-02-14","206","Y","1","2015-09-17","56","2016-07-21","364","Y","Y","Visit 3","3","2016-01-09","170","Serum","Direct Bilirubin (μmol/L)","0","0","5.1"
"01-014","Site 01","01","37","M","Black","Treatment A","TRTA","Ongoing","2015-07-24","2016-02-14","206","Y","1","2015-09-17","56","2016-07-21","364","Y","Y","Visit 3","3","2016-01-09","170","Serum","IgE (mg/L)","0.251759179138089","0.1","0.4"
"01-014","Site 01","01","37","M","Black","Treatment A","TRTA","Ongoing","2015-07-24","2016-02-14","206","Y","1","2015-09-17","56","2016-07-21","364","Y","Y","Visit 3","3","2016-01-09","170","Serum","Magnesium (mmol/L)","0.736836695189363","0.62","0.99"
"01-014","Site 01","01","37","M","Black","Treatment A","TRTA","Ongoing","2015-07-24","2016-02-14","206","Y","1","2015-09-17","56","2016-07-21","364","Y","Y","Visit 3","3","2016-01-09","170","Serum","Potassium (mmol/L)","3.64217854868668","3.5","5"
"01-014","Site 01","01","37","M","Black","Treatment A","TRTA","Ongoing","2015-07-24","2016-02-14","206","Y","1","2015-09-17","56","2016-07-21","364","Y","Y","Visit 3","3","2016-01-09","170","Serum","Sodium (mmol/L)","141.284406112428","136","145"
"01-014","Site 01","01","37","M","Black","Treatment A","TRTA","Ongoing","2015-07-24","2016-02-14","206","Y","1","2015-09-17","56","2016-07-21","364","Y","Y","Visit 3","3","2016-01-09","170","Serum","Total Bilirubin (μmol/L)","0.4532154505814","5.1","20.5"
"01-015","Site 01","01","26","M","Hispanic","Treatment B","TRTB","Ongoing","2015-04-28","2015-11-07","194","Y","1","2015-06-15","49","2016-05-05","374","N","Y","Screening","0","2015-04-28","1","Blood","Platelet count (x 109/L)","0","150","350"
"01-015","Site 01","01","26","M","Hispanic","Treatment B","TRTB","Ongoing","2015-04-28","2015-11-07","194","Y","1","2015-06-15","49","2016-05-05","374","N","Y","Screening","0","2015-04-28","1","Blood","RBC count (x 1012 cells/L)","5.21200648761923","4.2","5.9"
"01-015","Site 01","01","26","M","Hispanic","Treatment B","TRTB","Ongoing","2015-04-28","2015-11-07","194","Y","1","2015-06-15","49","2016-05-05","374","N","Y","Screening","0","2015-04-28","1","Blood","WBC count (x 109 cells/L)","0","4.5","11"
"01-015","Site 01","01","26","M","Hispanic","Treatment B","TRTB","Ongoing","2015-04-28","2015-11-07","194","Y","1","2015-06-15","49","2016-05-05","374","N","Y","Screening","0","2015-04-28","1","Serum","Albumin (g/L)","54.3894945578406","35","55"
"01-015","Site 01","01","26","M","Hispanic","Treatment B","TRTB","Ongoing","2015-04-28","2015-11-07","194","Y","1","2015-06-15","49","2016-05-05","374","N","Y","Screening","0","2015-04-28","1","Serum","Alkaline phosphatase (ALP) (μkat/L)","1.65709631044265","0.5","1.5"
"01-015","Site 01","01","26","M","Hispanic","Treatment B","TRTB","Ongoing","2015-04-28","2015-11-07","194","Y","1","2015-06-15","49","2016-05-05","374","N","Y","Screening","0","2015-04-28","1","Serum","Aminotransferase, alanine (ALT) (pkat/L)","0.514565723637921","0","0.58"
"01-015","Site 01","01","26","M","Hispanic","Treatment B","TRTB","Ongoing","2015-04-28","2015-11-07","194","Y","1","2015-06-15","49","2016-05-05","374","N","Y","Screening","0","2015-04-28","1","Serum","Aminotransferase, aspartate (AST) (pkat/L)","0.477310876025826","0","0.58"
"01-015","Site 01","01","26","M","Hispanic","Treatment B","TRTB","Ongoing","2015-04-28","2015-11-07","194","Y","1","2015-06-15","49","2016-05-05","374","N","Y","Screening","0","2015-04-28","1","Serum","Calcium (mmol/L)","2.16582843973285","2.2","2.6"
"01-015","Site 01","01","26","M","Hispanic","Treatment B","TRTB","Ongoing","2015-04-28","2015-11-07","194","Y","1","2015-06-15","49","2016-05-05","374","N","Y","Screening","0","2015-04-28","1","Serum","Chloride (mmol/L)","103.843597691495","98","106"
"01-015","Site 01","01","26","M","Hispanic","Treatment B","TRTB","Ongoing","2015-04-28","2015-11-07","194","Y","1","2015-06-15","49","2016-05-05","374","N","Y","Screening","0","2015-04-28","1","Serum","Creatinine (μmol/L)","126.901555059458","61.9","115"
"01-015","Site 01","01","26","M","Hispanic","Treatment B","TRTB","Ongoing","2015-04-28","2015-11-07","194","Y","1","2015-06-15","49","2016-05-05","374","N","Y","Screening","0","2015-04-28","1","Serum","Direct Bilirubin (μmol/L)","4.207983736782","0","5.1"
"01-015","Site 01","01","26","M","Hispanic","Treatment B","TRTB","Ongoing","2015-04-28","2015-11-07","194","Y","1","2015-06-15","49","2016-05-05","374","N","Y","Screening","0","2015-04-28","1","Serum","IgE (mg/L)","0.353729218975822","0.1","0.4"
"01-015","Site 01","01","26","M","Hispanic","Treatment B","TRTB","Ongoing","2015-04-28","2015-11-07","194","Y","1","2015-06-15","49","2016-05-05","374","N","Y","Screening","0","2015-04-28","1","Serum","Magnesium (mmol/L)","1.02915809609698","0.62","0.99"
"01-015","Site 01","01","26","M","Hispanic","Treatment B","TRTB","Ongoing","2015-04-28","2015-11-07","194","Y","1","2015-06-15","49","2016-05-05","374","N","Y","Screening","0","2015-04-28","1","Serum","Potassium (mmol/L)","3.45976064444273","3.5","5"
"01-015","Site 01","01","26","M","Hispanic","Treatment B","TRTB","Ongoing","2015-04-28","2015-11-07","194","Y","1","2015-06-15","49","2016-05-05","374","N","Y","Screening","0","2015-04-28","1","Serum","Sodium (mmol/L)","137.135510386073","136","145"
"01-015","Site 01","01","26","M","Hispanic","Treatment B","TRTB","Ongoing","2015-04-28","2015-11-07","194","Y","1","2015-06-15","49","2016-05-05","374","N","Y","Screening","0","2015-04-28","1","Serum","Total Bilirubin (μmol/L)","8.9710881163771","5.1","20.5"
"01-015","Site 01","01","26","M","Hispanic","Treatment B","TRTB","Ongoing","2015-04-28","2015-11-07","194","Y","1","2015-06-15","49","2016-05-05","374","N","Y","Visit 1","1","2015-06-15","49","Blood","Platelet count (x 109/L)","216.284553912321","150","350"
"01-015","Site 01","01","26","M","Hispanic","Treatment B","TRTB","Ongoing","2015-04-28","2015-11-07","194","Y","1","2015-06-15","49","2016-05-05","374","N","Y","Visit 1","1","2015-06-15","49","Blood","RBC count (x 1012 cells/L)","6.04925365190444","4.2","5.9"
"01-015","Site 01","01","26","M","Hispanic","Treatment B","TRTB","Ongoing","2015-04-28","2015-11-07","194","Y","1","2015-06-15","49","2016-05-05","374","N","Y","Visit 1","1","2015-06-15","49","Blood","WBC count (x 109 cells/L)","6.13342148543612","4.5","11"
"01-015","Site 01","01","26","M","Hispanic","Treatment B","TRTB","Ongoing","2015-04-28","2015-11-07","194","Y","1","2015-06-15","49","2016-05-05","374","N","Y","Visit 1","1","2015-06-15","49","Serum","Albumin (g/L)","36.9590520130821","35","55"
"01-015","Site 01","01","26","M","Hispanic","Treatment B","TRTB","Ongoing","2015-04-28","2015-11-07","194","Y","1","2015-06-15","49","2016-05-05","374","N","Y","Visit 1","1","2015-06-15","49","Serum","Alkaline phosphatase (ALP) (μkat/L)","0.948999764057629","0.5","1.5"
"01-015","Site 01","01","26","M","Hispanic","Treatment B","TRTB","Ongoing","2015-04-28","2015-11-07","194","Y","1","2015-06-15","49","2016-05-05","374","N","Y","Visit 1","1","2015-06-15","49","Serum","Aminotransferase, alanine (ALT) (pkat/L)","0.694286749330641","0","0.58"
"01-015","Site 01","01","26","M","Hispanic","Treatment B","TRTB","Ongoing","2015-04-28","2015-11-07","194","Y","1","2015-06-15","49","2016-05-05","374","N","Y","Visit 1","1","2015-06-15","49","Serum","Aminotransferase, aspartate (AST) (pkat/L)","0","0","0.58"
"01-015","Site 01","01","26","M","Hispanic","Treatment B","TRTB","Ongoing","2015-04-28","2015-11-07","194","Y","1","2015-06-15","49","2016-05-05","374","N","Y","Visit 1","1","2015-06-15","49","Serum","Calcium (mmol/L)","","2.2","2.6"
"01-015","Site 01","01","26","M","Hispanic","Treatment B","TRTB","Ongoing","2015-04-28","2015-11-07","194","Y","1","2015-06-15","49","2016-05-05","374","N","Y","Visit 1","1","2015-06-15","49","Serum","Chloride (mmol/L)","97.6123935588966","98","106"
"01-015","Site 01","01","26","M","Hispanic","Treatment B","TRTB","Ongoing","2015-04-28","2015-11-07","194","Y","1","2015-06-15","49","2016-05-05","374","N","Y","Visit 1","1","2015-06-15","49","Serum","Creatinine (μmol/L)","90.5009083217971","61.9","115"
"01-015","Site 01","01","26","M","Hispanic","Treatment B","TRTB","Ongoing","2015-04-28","2015-11-07","194","Y","1","2015-06-15","49","2016-05-05","374","N","Y","Visit 1","1","2015-06-15","49","Serum","Direct Bilirubin (μmol/L)","4.3127196495773","0","5.1"
"01-015","Site 01","01","26","M","Hispanic","Treatment B","TRTB","Ongoing","2015-04-28","2015-11-07","194","Y","1","2015-06-15","49","2016-05-05","374","N","Y","Visit 1","1","2015-06-15","49","Serum","IgE (mg/L)","0.276693683976999","0.1","0.4"
"01-015","Site 01","01","26","M","Hispanic","Treatment B","TRTB","Ongoing","2015-04-28","2015-11-07","194","Y","1","2015-06-15","49","2016-05-05","374","N","Y","Visit 1","1","2015-06-15","49","Serum","Magnesium (mmol/L)","0.940018646160276","0.62","0.99"
"01-015","Site 01","01","26","M","Hispanic","Treatment B","TRTB","Ongoing","2015-04-28","2015-11-07","194","Y","1","2015-06-15","49","2016-05-05","374","N","Y","Visit 1","1","2015-06-15","49","Serum","Potassium (mmol/L)","4.33373649956794","3.5","5"
"01-015","Site 01","01","26","M","Hispanic","Treatment B","TRTB","Ongoing","2015-04-28","2015-11-07","194","Y","1","2015-06-15","49","2016-05-05","374","N","Y","Visit 1","1","2015-06-15","49","Serum","Sodium (mmol/L)","150.349002965674","136","145"
"01-015","Site 01","01","26","M","Hispanic","Treatment B","TRTB","Ongoing","2015-04-28","2015-11-07","194","Y","1","2015-06-15","49","2016-05-05","374","N","Y","Visit 1","1","2015-06-15","49","Serum","Total Bilirubin (μmol/L)","0","5.1","20.5"
"01-015","Site 01","01","26","M","Hispanic","Treatment B","TRTB","Ongoing","2015-04-28","2015-11-07","194","Y","1","2015-06-15","49","2016-05-05","374","N","Y","Visit 2","2","2015-08-17","112","Blood","Platelet count (x 109/L)","258.512890626098","150","350"
"01-015","Site 01","01","26","M","Hispanic","Treatment B","TRTB","Ongoing","2015-04-28","2015-11-07","194","Y","1","2015-06-15","49","2016-05-05","374","N","Y","Visit 2","2","2015-08-17","112","Blood","RBC count (x 1012 cells/L)","3.69685517204265","4.2","5.9"
"01-015","Site 01","01","26","M","Hispanic","Treatment B","TRTB","Ongoing","2015-04-28","2015-11-07","194","Y","1","2015-06-15","49","2016-05-05","374","N","Y","Visit 2","2","2015-08-17","112","Blood","WBC count (x 109 cells/L)","0","4.5","11"
"01-015","Site 01","01","26","M","Hispanic","Treatment B","TRTB","Ongoing","2015-04-28","2015-11-07","194","Y","1","2015-06-15","49","2016-05-05","374","N","Y","Visit 2","2","2015-08-17","112","Serum","Albumin (g/L)","46.6592031478935","35","55"
"01-015","Site 01","01","26","M","Hispanic","Treatment B","TRTB","Ongoing","2015-04-28","2015-11-07","194","Y","1","2015-06-15","49","2016-05-05","374","N","Y","Visit 2","2","2015-08-17","112","Serum","Alkaline phosphatase (ALP) (μkat/L)","0.464565573575409","0.5","1.5"
"01-015","Site 01","01","26","M","Hispanic","Treatment B","TRTB","Ongoing","2015-04-28","2015-11-07","194","Y","1","2015-06-15","49","2016-05-05","374","N","Y","Visit 2","2","2015-08-17","112","Serum","Aminotransferase, alanine (ALT) (pkat/L)","0.564622629906892","0","0.58"
"01-015","Site 01","01","26","M","Hispanic","Treatment B","TRTB","Ongoing","2015-04-28","2015-11-07","194","Y","1","2015-06-15","49","2016-05-05","374","N","Y","Visit 2","2","2015-08-17","112","Serum","Aminotransferase, aspartate (AST) (pkat/L)","","0","0.58"
"01-015","Site 01","01","26","M","Hispanic","Treatment B","TRTB","Ongoing","2015-04-28","2015-11-07","194","Y","1","2015-06-15","49","2016-05-05","374","N","Y","Visit 2","2","2015-08-17","112","Serum","Calcium (mmol/L)","2.42264812295553","2.2","2.6"
"01-015","Site 01","01","26","M","Hispanic","Treatment B","TRTB","Ongoing","2015-04-28","2015-11-07","194","Y","1","2015-06-15","49","2016-05-05","374","N","Y","Visit 2","2","2015-08-17","112","Serum","Chloride (mmol/L)","99.1469586493454","98","106"
"01-015","Site 01","01","26","M","Hispanic","Treatment B","TRTB","Ongoing","2015-04-28","2015-11-07","194","Y","1","2015-06-15","49","2016-05-05","374","N","Y","Visit 2","2","2015-08-17","112","Serum","Creatinine (μmol/L)","86.8537171877042","61.9","115"
"01-015","Site 01","01","26","M","Hispanic","Treatment B","TRTB","Ongoing","2015-04-28","2015-11-07","194","Y","1","2015-06-15","49","2016-05-05","374","N","Y","Visit 2","2","2015-08-17","112","Serum","Direct Bilirubin (μmol/L)","1.81858760279258","0","5.1"
"01-015","Site 01","01","26","M","Hispanic","Treatment B","TRTB","Ongoing","2015-04-28","2015-11-07","194","Y","1","2015-06-15","49","2016-05-05","374","N","Y","Visit 2","2","2015-08-17","112","Serum","IgE (mg/L)","","0.1","0.4"
"01-015","Site 01","01","26","M","Hispanic","Treatment B","TRTB","Ongoing","2015-04-28","2015-11-07","194","Y","1","2015-06-15","49","2016-05-05","374","N","Y","Visit 2","2","2015-08-17","112","Serum","Magnesium (mmol/L)","1.26566947359882","0.62","0.99"
"01-015","Site 01","01","26","M","Hispanic","Treatment B","TRTB","Ongoing","2015-04-28","2015-11-07","194","Y","1","2015-06-15","49","2016-05-05","374","N","Y","Visit 2","2","2015-08-17","112","Serum","Potassium (mmol/L)","3.62645006890625","3.5","5"
"01-015","Site 01","01","26","M","Hispanic","Treatment B","TRTB","Ongoing","2015-04-28","2015-11-07","194","Y","1","2015-06-15","49","2016-05-05","374","N","Y","Visit 2","2","2015-08-17","112","Serum","Sodium (mmol/L)","133.289752426752","136","145"
"01-015","Site 01","01","26","M","Hispanic","Treatment B","TRTB","Ongoing","2015-04-28","2015-11-07","194","Y","1","2015-06-15","49","2016-05-05","374","N","Y","Visit 2","2","2015-08-17","112","Serum","Total Bilirubin (μmol/L)","11.7745709765117","5.1","20.5"
"01-016","Site 01","01","18","M","Black","Treatment A","TRTA","Ongoing","2015-12-21","2016-09-06","261","Y","1","2016-02-09","51","2016-12-28","374","Y","N","Screening","0","2015-12-21","1","Blood","Platelet count (x 109/L)","431.470291242682","150","350"
"01-016","Site 01","01","18","M","Black","Treatment A","TRTA","Ongoing","2015-12-21","2016-09-06","261","Y","1","2016-02-09","51","2016-12-28","374","Y","N","Screening","0","2015-12-21","1","Blood","RBC count (x 1012 cells/L)","5.89380830215865","4.2","5.9"
"01-016","Site 01","01","18","M","Black","Treatment A","TRTA","Ongoing","2015-12-21","2016-09-06","261","Y","1","2016-02-09","51","2016-12-28","374","Y","N","Screening","0","2015-12-21","1","Blood","WBC count (x 109 cells/L)","9.87374072117297","4.5","11"
"01-016","Site 01","01","18","M","Black","Treatment A","TRTA","Ongoing","2015-12-21","2016-09-06","261","Y","1","2016-02-09","51","2016-12-28","374","Y","N","Screening","0","2015-12-21","1","Serum","Albumin (g/L)","31.9224806882721","35","55"
"01-016","Site 01","01","18","M","Black","Treatment A","TRTA","Ongoing","2015-12-21","2016-09-06","261","Y","1","2016-02-09","51","2016-12-28","374","Y","N","Screening","0","2015-12-21","1","Serum","Alkaline phosphatase (ALP) (μkat/L)","1.51222153037859","0.5","1.5"
"01-016","Site 01","01","18","M","Black","Treatment A","TRTA","Ongoing","2015-12-21","2016-09-06","261","Y","1","2016-02-09","51","2016-12-28","374","Y","N","Screening","0","2015-12-21","1","Serum","Aminotransferase, alanine (ALT) (pkat/L)","0","0","0.58"
"01-016","Site 01","01","18","M","Black","Treatment A","TRTA","Ongoing","2015-12-21","2016-09-06","261","Y","1","2016-02-09","51","2016-12-28","374","Y","N","Screening","0","2015-12-21","1","Serum","Aminotransferase, aspartate (AST) (pkat/L)","","0","0.58"
"01-016","Site 01","01","18","M","Black","Treatment A","TRTA","Ongoing","2015-12-21","2016-09-06","261","Y","1","2016-02-09","51","2016-12-28","374","Y","N","Screening","0","2015-12-21","1","Serum","Calcium (mmol/L)","2.4785428667719","2.2","2.6"
"01-016","Site 01","01","18","M","Black","Treatment A","TRTA","Ongoing","2015-12-21","2016-09-06","261","Y","1","2016-02-09","51","2016-12-28","374","Y","N","Screening","0","2015-12-21","1","Serum","Chloride (mmol/L)","103.70826645931","98","106"
"01-016","Site 01","01","18","M","Black","Treatment A","TRTA","Ongoing","2015-12-21","2016-09-06","261","Y","1","2016-02-09","51","2016-12-28","374","Y","N","Screening","0","2015-12-21","1","Serum","Creatinine (μmol/L)","99.1317793847082","61.9","115"
"01-016","Site 01","01","18","M","Black","Treatment A","TRTA","Ongoing","2015-12-21","2016-09-06","261","Y","1","2016-02-09","51","2016-12-28","374","Y","N","Screening","0","2015-12-21","1","Serum","Direct Bilirubin (μmol/L)","1.16626912331543","0","5.1"
"01-016","Site 01","01","18","M","Black","Treatment A","TRTA","Ongoing","2015-12-21","2016-09-06","261","Y","1","2016-02-09","51","2016-12-28","374","Y","N","Screening","0","2015-12-21","1","Serum","IgE (mg/L)","0.0184098050722344","0.1","0.4"
"01-016","Site 01","01","18","M","Black","Treatment A","TRTA","Ongoing","2015-12-21","2016-09-06","261","Y","1","2016-02-09","51","2016-12-28","374","Y","N","Screening","0","2015-12-21","1","Serum","Magnesium (mmol/L)","0.966975364660916","0.62","0.99"
"01-016","Site 01","01","18","M","Black","Treatment A","TRTA","Ongoing","2015-12-21","2016-09-06","261","Y","1","2016-02-09","51","2016-12-28","374","Y","N","Screening","0","2015-12-21","1","Serum","Potassium (mmol/L)","3.8832282243051","3.5","5"
"01-016","Site 01","01","18","M","Black","Treatment A","TRTA","Ongoing","2015-12-21","2016-09-06","261","Y","1","2016-02-09","51","2016-12-28","374","Y","N","Screening","0","2015-12-21","1","Serum","Sodium (mmol/L)","145.515080234843","136","145"
"01-016","Site 01","01","18","M","Black","Treatment A","TRTA","Ongoing","2015-12-21","2016-09-06","261","Y","1","2016-02-09","51","2016-12-28","374","Y","N","Screening","0","2015-12-21","1","Serum","Total Bilirubin (μmol/L)","12.020172219768","5.1","20.5"
"01-016","Site 01","01","18","M","Black","Treatment A","TRTA","Ongoing","2015-12-21","2016-09-06","261","Y","1","2016-02-09","51","2016-12-28","374","Y","N","Visit 1","1","2016-02-09","51","Blood","Platelet count (x 109/L)","212.212417297338","150","350"
"01-016","Site 01","01","18","M","Black","Treatment A","TRTA","Ongoing","2015-12-21","2016-09-06","261","Y","1","2016-02-09","51","2016-12-28","374","Y","N","Visit 1","1","2016-02-09","51","Blood","RBC count (x 1012 cells/L)","6.77643184224803","4.2","5.9"
"01-016","Site 01","01","18","M","Black","Treatment A","TRTA","Ongoing","2015-12-21","2016-09-06","261","Y","1","2016-02-09","51","2016-12-28","374","Y","N","Visit 1","1","2016-02-09","51","Blood","WBC count (x 109 cells/L)","0","4.5","11"
"01-016","Site 01","01","18","M","Black","Treatment A","TRTA","Ongoing","2015-12-21","2016-09-06","261","Y","1","2016-02-09","51","2016-12-28","374","Y","N","Visit 1","1","2016-02-09","51","Serum","Albumin (g/L)","62.7704896671837","35","55"
"01-016","Site 01","01","18","M","Black","Treatment A","TRTA","Ongoing","2015-12-21","2016-09-06","261","Y","1","2016-02-09","51","2016-12-28","374","Y","N","Visit 1","1","2016-02-09","51","Serum","Alkaline phosphatase (ALP) (μkat/L)","1.1291750752376","0.5","1.5"
"01-016","Site 01","01","18","M","Black","Treatment A","TRTA","Ongoing","2015-12-21","2016-09-06","261","Y","1","2016-02-09","51","2016-12-28","374","Y","N","Visit 1","1","2016-02-09","51","Serum","Aminotransferase, alanine (ALT) (pkat/L)","0.0529644795664716","0","0.58"
"01-016","Site 01","01","18","M","Black","Treatment A","TRTA","Ongoing","2015-12-21","2016-09-06","261","Y","1","2016-02-09","51","2016-12-28","374","Y","N","Visit 1","1","2016-02-09","51","Serum","Aminotransferase, aspartate (AST) (pkat/L)","0.212785525067134","0","0.58"
"01-016","Site 01","01","18","M","Black","Treatment A","TRTA","Ongoing","2015-12-21","2016-09-06","261","Y","1","2016-02-09","51","2016-12-28","374","Y","N","Visit 1","1","2016-02-09","51","Serum","Calcium (mmol/L)","","2.2","2.6"
"01-016","Site 01","01","18","M","Black","Treatment A","TRTA","Ongoing","2015-12-21","2016-09-06","261","Y","1","2016-02-09","51","2016-12-28","374","Y","N","Visit 1","1","2016-02-09","51","Serum","Chloride (mmol/L)","97.4638694756513","98","106"
"01-016","Site 01","01","18","M","Black","Treatment A","TRTA","Ongoing","2015-12-21","2016-09-06","261","Y","1","2016-02-09","51","2016-12-28","374","Y","N","Visit 1","1","2016-02-09","51","Serum","Creatinine (μmol/L)","156.562788692177","61.9","115"
"01-016","Site 01","01","18","M","Black","Treatment A","TRTA","Ongoing","2015-12-21","2016-09-06","261","Y","1","2016-02-09","51","2016-12-28","374","Y","N","Visit 1","1","2016-02-09","51","Serum","Direct Bilirubin (μmol/L)","7.93967017443995","0","5.1"
"01-016","Site 01","01","18","M","Black","Treatment A","TRTA","Ongoing","2015-12-21","2016-09-06","261","Y","1","2016-02-09","51","2016-12-28","374","Y","N","Visit 1","1","2016-02-09","51","Serum","IgE (mg/L)","0.319070861636469","0.1","0.4"
"01-016","Site 01","01","18","M","Black","Treatment A","TRTA","Ongoing","2015-12-21","2016-09-06","261","Y","1","2016-02-09","51","2016-12-28","374","Y","N","Visit 1","1","2016-02-09","51","Serum","Magnesium (mmol/L)","0.62474631601116","0.62","0.99"
"01-016","Site 01","01","18","M","Black","Treatment A","TRTA","Ongoing","2015-12-21","2016-09-06","261","Y","1","2016-02-09","51","2016-12-28","374","Y","N","Visit 1","1","2016-02-09","51","Serum","Potassium (mmol/L)","5.05073688520751","3.5","5"
"01-016","Site 01","01","18","M","Black","Treatment A","TRTA","Ongoing","2015-12-21","2016-09-06","261","Y","1","2016-02-09","51","2016-12-28","374","Y","N","Visit 1","1","2016-02-09","51","Serum","Sodium (mmol/L)","142.207668825573","136","145"
"01-016","Site 01","01","18","M","Black","Treatment A","TRTA","Ongoing","2015-12-21","2016-09-06","261","Y","1","2016-02-09","51","2016-12-28","374","Y","N","Visit 1","1","2016-02-09","51","Serum","Total Bilirubin (μmol/L)","9.958007593502","5.1","20.5"
"01-016","Site 01","01","18","M","Black","Treatment A","TRTA","Ongoing","2015-12-21","2016-09-06","261","Y","1","2016-02-09","51","2016-12-28","374","Y","N","Visit 2","2","2016-04-15","117","Blood","Platelet count (x 109/L)","193.264743519251","150","350"
"01-016","Site 01","01","18","M","Black","Treatment A","TRTA","Ongoing","2015-12-21","2016-09-06","261","Y","1","2016-02-09","51","2016-12-28","374","Y","N","Visit 2","2","2016-04-15","117","Blood","RBC count (x 1012 cells/L)","5.40256148727941","4.2","5.9"
"01-016","Site 01","01","18","M","Black","Treatment A","TRTA","Ongoing","2015-12-21","2016-09-06","261","Y","1","2016-02-09","51","2016-12-28","374","Y","N","Visit 2","2","2016-04-15","117","Blood","WBC count (x 109 cells/L)","7.41331229739558","4.5","11"
"01-016","Site 01","01","18","M","Black","Treatment A","TRTA","Ongoing","2015-12-21","2016-09-06","261","Y","1","2016-02-09","51","2016-12-28","374","Y","N","Visit 2","2","2016-04-15","117","Serum","Albumin (g/L)","41.770123326536","35","55"
"01-016","Site 01","01","18","M","Black","Treatment A","TRTA","Ongoing","2015-12-21","2016-09-06","261","Y","1","2016-02-09","51","2016-12-28","374","Y","N","Visit 2","2","2016-04-15","117","Serum","Alkaline phosphatase (ALP) (μkat/L)","0.743069707664586","0.5","1.5"
"01-016","Site 01","01","18","M","Black","Treatment A","TRTA","Ongoing","2015-12-21","2016-09-06","261","Y","1","2016-02-09","51","2016-12-28","374","Y","N","Visit 2","2","2016-04-15","117","Serum","Aminotransferase, alanine (ALT) (pkat/L)","0","0","0.58"
"01-016","Site 01","01","18","M","Black","Treatment A","TRTA","Ongoing","2015-12-21","2016-09-06","261","Y","1","2016-02-09","51","2016-12-28","374","Y","N","Visit 2","2","2016-04-15","117","Serum","Aminotransferase, aspartate (AST) (pkat/L)","","0","0.58"
"01-016","Site 01","01","18","M","Black","Treatment A","TRTA","Ongoing","2015-12-21","2016-09-06","261","Y","1","2016-02-09","51","2016-12-28","374","Y","N","Visit 2","2","2016-04-15","117","Serum","Calcium (mmol/L)","2.5264238637118","2.2","2.6"
"01-016","Site 01","01","18","M","Black","Treatment A","TRTA","Ongoing","2015-12-21","2016-09-06","261","Y","1","2016-02-09","51","2016-12-28","374","Y","N","Visit 2","2","2016-04-15","117","Serum","Chloride (mmol/L)","102.894195951989","98","106"
"01-016","Site 01","01","18","M","Black","Treatment A","TRTA","Ongoing","2015-12-21","2016-09-06","261","Y","1","2016-02-09","51","2016-12-28","374","Y","N","Visit 2","2","2016-04-15","117","Serum","Creatinine (μmol/L)","107.717021037046","61.9","115"
"01-016","Site 01","01","18","M","Black","Treatment A","TRTA","Ongoing","2015-12-21","2016-09-06","261","Y","1","2016-02-09","51","2016-12-28","374","Y","N","Visit 2","2","2016-04-15","117","Serum","Direct Bilirubin (μmol/L)","2.52923831111465","0","5.1"
"01-016","Site 01","01","18","M","Black","Treatment A","TRTA","Ongoing","2015-12-21","2016-09-06","261","Y","1","2016-02-09","51","2016-12-28","374","Y","N","Visit 2","2","2016-04-15","117","Serum","IgE (mg/L)","0.0892024782080367","0.1","0.4"
"01-016","Site 01","01","18","M","Black","Treatment A","TRTA","Ongoing","2015-12-21","2016-09-06","261","Y","1","2016-02-09","51","2016-12-28","374","Y","N","Visit 2","2","2016-04-15","117","Serum","Magnesium (mmol/L)","0.749093467854069","0.62","0.99"
"01-016","Site 01","01","18","M","Black","Treatment A","TRTA","Ongoing","2015-12-21","2016-09-06","261","Y","1","2016-02-09","51","2016-12-28","374","Y","N","Visit 2","2","2016-04-15","117","Serum","Potassium (mmol/L)","4.16148502271027","3.5","5"
"01-016","Site 01","01","18","M","Black","Treatment A","TRTA","Ongoing","2015-12-21","2016-09-06","261","Y","1","2016-02-09","51","2016-12-28","374","Y","N","Visit 2","2","2016-04-15","117","Serum","Sodium (mmol/L)","146.818505455539","136","145"
"01-016","Site 01","01","18","M","Black","Treatment A","TRTA","Ongoing","2015-12-21","2016-09-06","261","Y","1","2016-02-09","51","2016-12-28","374","Y","N","Visit 2","2","2016-04-15","117","Serum","Total Bilirubin (μmol/L)","10.1893285057101","5.1","20.5"
"01-016","Site 01","01","18","M","Black","Treatment A","TRTA","Ongoing","2015-12-21","2016-09-06","261","Y","1","2016-02-09","51","2016-12-28","374","Y","N","Visit 3","3","2016-06-09","172","Blood","Platelet count (x 109/L)","","150","350"
"01-016","Site 01","01","18","M","Black","Treatment A","TRTA","Ongoing","2015-12-21","2016-09-06","261","Y","1","2016-02-09","51","2016-12-28","374","Y","N","Visit 3","3","2016-06-09","172","Blood","RBC count (x 1012 cells/L)","","4.2","5.9"
"01-016","Site 01","01","18","M","Black","Treatment A","TRTA","Ongoing","2015-12-21","2016-09-06","261","Y","1","2016-02-09","51","2016-12-28","374","Y","N","Visit 3","3","2016-06-09","172","Blood","WBC count (x 109 cells/L)","1.1053062983609","4.5","11"
"01-016","Site 01","01","18","M","Black","Treatment A","TRTA","Ongoing","2015-12-21","2016-09-06","261","Y","1","2016-02-09","51","2016-12-28","374","Y","N","Visit 3","3","2016-06-09","172","Serum","Albumin (g/L)","34.0695696820422","35","55"
"01-016","Site 01","01","18","M","Black","Treatment A","TRTA","Ongoing","2015-12-21","2016-09-06","261","Y","1","2016-02-09","51","2016-12-28","374","Y","N","Visit 3","3","2016-06-09","172","Serum","Alkaline phosphatase (ALP) (μkat/L)","0.883680297467633","0.5","1.5"
"01-016","Site 01","01","18","M","Black","Treatment A","TRTA","Ongoing","2015-12-21","2016-09-06","261","Y","1","2016-02-09","51","2016-12-28","374","Y","N","Visit 3","3","2016-06-09","172","Serum","Aminotransferase, alanine (ALT) (pkat/L)","","0","0.58"
"01-016","Site 01","01","18","M","Black","Treatment A","TRTA","Ongoing","2015-12-21","2016-09-06","261","Y","1","2016-02-09","51","2016-12-28","374","Y","N","Visit 3","3","2016-06-09","172","Serum","Aminotransferase, aspartate (AST) (pkat/L)","0","0","0.58"
"01-016","Site 01","01","18","M","Black","Treatment A","TRTA","Ongoing","2015-12-21","2016-09-06","261","Y","1","2016-02-09","51","2016-12-28","374","Y","N","Visit 3","3","2016-06-09","172","Serum","Calcium (mmol/L)","2.69992165386756","2.2","2.6"
"01-016","Site 01","01","18","M","Black","Treatment A","TRTA","Ongoing","2015-12-21","2016-09-06","261","Y","1","2016-02-09","51","2016-12-28","374","Y","N","Visit 3","3","2016-06-09","172","Serum","Chloride (mmol/L)","","98","106"
"01-016","Site 01","01","18","M","Black","Treatment A","TRTA","Ongoing","2015-12-21","2016-09-06","261","Y","1","2016-02-09","51","2016-12-28","374","Y","N","Visit 3","3","2016-06-09","172","Serum","Creatinine (μmol/L)","104.926316816877","61.9","115"
"01-016","Site 01","01","18","M","Black","Treatment A","TRTA","Ongoing","2015-12-21","2016-09-06","261","Y","1","2016-02-09","51","2016-12-28","374","Y","N","Visit 3","3","2016-06-09","172","Serum","Direct Bilirubin (μmol/L)","2.06066124391447","0","5.1"
"01-016","Site 01","01","18","M","Black","Treatment A","TRTA","Ongoing","2015-12-21","2016-09-06","261","Y","1","2016-02-09","51","2016-12-28","374","Y","N","Visit 3","3","2016-06-09","172","Serum","IgE (mg/L)","0.242184965149434","0.1","0.4"
"01-016","Site 01","01","18","M","Black","Treatment A","TRTA","Ongoing","2015-12-21","2016-09-06","261","Y","1","2016-02-09","51","2016-12-28","374","Y","N","Visit 3","3","2016-06-09","172","Serum","Magnesium (mmol/L)","0.693149750412546","0.62","0.99"
"01-016","Site 01","01","18","M","Black","Treatment A","TRTA","Ongoing","2015-12-21","2016-09-06","261","Y","1","2016-02-09","51","2016-12-28","374","Y","N","Visit 3","3","2016-06-09","172","Serum","Potassium (mmol/L)","4.19791892847221","3.5","5"
"01-016","Site 01","01","18","M","Black","Treatment A","TRTA","Ongoing","2015-12-21","2016-09-06","261","Y","1","2016-02-09","51","2016-12-28","374","Y","N","Visit 3","3","2016-06-09","172","Serum","Sodium (mmol/L)","138.764497975025","136","145"
"01-016","Site 01","01","18","M","Black","Treatment A","TRTA","Ongoing","2015-12-21","2016-09-06","261","Y","1","2016-02-09","51","2016-12-28","374","Y","N","Visit 3","3","2016-06-09","172","Serum","Total Bilirubin (μmol/L)","9.08531050907173","5.1","20.5"
"01-016","Site 01","01","18","M","Black","Treatment A","TRTA","Ongoing","2015-12-21","2016-09-06","261","Y","1","2016-02-09","51","2016-12-28","374","Y","N","Visit 4","4","2016-08-01","225","Blood","Platelet count (x 109/L)","","150","350"
"01-016","Site 01","01","18","M","Black","Treatment A","TRTA","Ongoing","2015-12-21","2016-09-06","261","Y","1","2016-02-09","51","2016-12-28","374","Y","N","Visit 4","4","2016-08-01","225","Blood","RBC count (x 1012 cells/L)","","4.2","5.9"
"01-016","Site 01","01","18","M","Black","Treatment A","TRTA","Ongoing","2015-12-21","2016-09-06","261","Y","1","2016-02-09","51","2016-12-28","374","Y","N","Visit 4","4","2016-08-01","225","Blood","WBC count (x 109 cells/L)","","4.5","11"
"01-016","Site 01","01","18","M","Black","Treatment A","TRTA","Ongoing","2015-12-21","2016-09-06","261","Y","1","2016-02-09","51","2016-12-28","374","Y","N","Visit 4","4","2016-08-01","225","Serum","Albumin (g/L)","67.7539100597369","35","55"
"01-016","Site 01","01","18","M","Black","Treatment A","TRTA","Ongoing","2015-12-21","2016-09-06","261","Y","1","2016-02-09","51","2016-12-28","374","Y","N","Visit 4","4","2016-08-01","225","Serum","Alkaline phosphatase (ALP) (μkat/L)","","0.5","1.5"
"01-016","Site 01","01","18","M","Black","Treatment A","TRTA","Ongoing","2015-12-21","2016-09-06","261","Y","1","2016-02-09","51","2016-12-28","374","Y","N","Visit 4","4","2016-08-01","225","Serum","Aminotransferase, alanine (ALT) (pkat/L)","","0","0.58"
"01-016","Site 01","01","18","M","Black","Treatment A","TRTA","Ongoing","2015-12-21","2016-09-06","261","Y","1","2016-02-09","51","2016-12-28","374","Y","N","Visit 4","4","2016-08-01","225","Serum","Aminotransferase, aspartate (AST) (pkat/L)","0.420814253598491","0","0.58"
"01-016","Site 01","01","18","M","Black","Treatment A","TRTA","Ongoing","2015-12-21","2016-09-06","261","Y","1","2016-02-09","51","2016-12-28","374","Y","N","Visit 4","4","2016-08-01","225","Serum","Calcium (mmol/L)","2.16916295930105","2.2","2.6"
"01-016","Site 01","01","18","M","Black","Treatment A","TRTA","Ongoing","2015-12-21","2016-09-06","261","Y","1","2016-02-09","51","2016-12-28","374","Y","N","Visit 4","4","2016-08-01","225","Serum","Chloride (mmol/L)","105.391455457908","98","106"
"01-016","Site 01","01","18","M","Black","Treatment A","TRTA","Ongoing","2015-12-21","2016-09-06","261","Y","1","2016-02-09","51","2016-12-28","374","Y","N","Visit 4","4","2016-08-01","225","Serum","Creatinine (μmol/L)","77.822806823506","61.9","115"
"01-016","Site 01","01","18","M","Black","Treatment A","TRTA","Ongoing","2015-12-21","2016-09-06","261","Y","1","2016-02-09","51","2016-12-28","374","Y","N","Visit 4","4","2016-08-01","225","Serum","Direct Bilirubin (μmol/L)","6.95300861549477","0","5.1"
"01-016","Site 01","01","18","M","Black","Treatment A","TRTA","Ongoing","2015-12-21","2016-09-06","261","Y","1","2016-02-09","51","2016-12-28","374","Y","N","Visit 4","4","2016-08-01","225","Serum","IgE (mg/L)","0.207513431059913","0.1","0.4"
"01-016","Site 01","01","18","M","Black","Treatment A","TRTA","Ongoing","2015-12-21","2016-09-06","261","Y","1","2016-02-09","51","2016-12-28","374","Y","N","Visit 4","4","2016-08-01","225","Serum","Magnesium (mmol/L)","0.884502726300536","0.62","0.99"
"01-016","Site 01","01","18","M","Black","Treatment A","TRTA","Ongoing","2015-12-21","2016-09-06","261","Y","1","2016-02-09","51","2016-12-28","374","Y","N","Visit 4","4","2016-08-01","225","Serum","Potassium (mmol/L)","3.98787386785207","3.5","5"
"01-016","Site 01","01","18","M","Black","Treatment A","TRTA","Ongoing","2015-12-21","2016-09-06","261","Y","1","2016-02-09","51","2016-12-28","374","Y","N","Visit 4","4","2016-08-01","225","Serum","Sodium (mmol/L)","","136","145"
"01-016","Site 01","01","18","M","Black","Treatment A","TRTA","Ongoing","2015-12-21","2016-09-06","261","Y","1","2016-02-09","51","2016-12-28","374","Y","N","Visit 4","4","2016-08-01","225","Serum","Total Bilirubin (μmol/L)","16.2720728083717","5.1","20.5"
"01-017","Site 01","01","40","M","Hispanic","Treatment A","TRTA","Ongoing","2015-02-12","2015-08-05","175","Y","1","2015-04-04","52","2016-02-19","373","Y","Y","Screening","0","2015-02-12","1","Blood","Platelet count (x 109/L)","101.902431807224","150","350"
"01-017","Site 01","01","40","M","Hispanic","Treatment A","TRTA","Ongoing","2015-02-12","2015-08-05","175","Y","1","2015-04-04","52","2016-02-19","373","Y","Y","Screening","0","2015-02-12","1","Blood","RBC count (x 1012 cells/L)","5.73475761065811","4.2","5.9"
"01-017","Site 01","01","40","M","Hispanic","Treatment A","TRTA","Ongoing","2015-02-12","2015-08-05","175","Y","1","2015-04-04","52","2016-02-19","373","Y","Y","Screening","0","2015-02-12","1","Blood","WBC count (x 109 cells/L)","8.65689839579431","4.5","11"
"01-017","Site 01","01","40","M","Hispanic","Treatment A","TRTA","Ongoing","2015-02-12","2015-08-05","175","Y","1","2015-04-04","52","2016-02-19","373","Y","Y","Screening","0","2015-02-12","1","Serum","Albumin (g/L)","44.2679976221984","35","55"
"01-017","Site 01","01","40","M","Hispanic","Treatment A","TRTA","Ongoing","2015-02-12","2015-08-05","175","Y","1","2015-04-04","52","2016-02-19","373","Y","Y","Screening","0","2015-02-12","1","Serum","Alkaline phosphatase (ALP) (μkat/L)","0.594447287900278","0.5","1.5"
"01-017","Site 01","01","40","M","Hispanic","Treatment A","TRTA","Ongoing","2015-02-12","2015-08-05","175","Y","1","2015-04-04","52","2016-02-19","373","Y","Y","Screening","0","2015-02-12","1","Serum","Aminotransferase, alanine (ALT) (pkat/L)","0","0","0.58"
"01-017","Site 01","01","40","M","Hispanic","Treatment A","TRTA","Ongoing","2015-02-12","2015-08-05","175","Y","1","2015-04-04","52","2016-02-19","373","Y","Y","Screening","0","2015-02-12","1","Serum","Aminotransferase, aspartate (AST) (pkat/L)","0.0199233255203901","0","0.58"
"01-017","Site 01","01","40","M","Hispanic","Treatment A","TRTA","Ongoing","2015-02-12","2015-08-05","175","Y","1","2015-04-04","52","2016-02-19","373","Y","Y","Screening","0","2015-02-12","1","Serum","Calcium (mmol/L)","2.44335286185041","2.2","2.6"
"01-017","Site 01","01","40","M","Hispanic","Treatment A","TRTA","Ongoing","2015-02-12","2015-08-05","175","Y","1","2015-04-04","52","2016-02-19","373","Y","Y","Screening","0","2015-02-12","1","Serum","Chloride (mmol/L)","100.326867032817","98","106"
"01-017","Site 01","01","40","M","Hispanic","Treatment A","TRTA","Ongoing","2015-02-12","2015-08-05","175","Y","1","2015-04-04","52","2016-02-19","373","Y","Y","Screening","0","2015-02-12","1","Serum","Creatinine (μmol/L)","106.842054435848","61.9","115"
"01-017","Site 01","01","40","M","Hispanic","Treatment A","TRTA","Ongoing","2015-02-12","2015-08-05","175","Y","1","2015-04-04","52","2016-02-19","373","Y","Y","Screening","0","2015-02-12","1","Serum","Direct Bilirubin (μmol/L)","0.751279607127888","0","5.1"
"01-017","Site 01","01","40","M","Hispanic","Treatment A","TRTA","Ongoing","2015-02-12","2015-08-05","175","Y","1","2015-04-04","52","2016-02-19","373","Y","Y","Screening","0","2015-02-12","1","Serum","IgE (mg/L)","0.246693151314451","0.1","0.4"
"01-017","Site 01","01","40","M","Hispanic","Treatment A","TRTA","Ongoing","2015-02-12","2015-08-05","175","Y","1","2015-04-04","52","2016-02-19","373","Y","Y","Screening","0","2015-02-12","1","Serum","Magnesium (mmol/L)","0.482032557174775","0.62","0.99"
"01-017","Site 01","01","40","M","Hispanic","Treatment A","TRTA","Ongoing","2015-02-12","2015-08-05","175","Y","1","2015-04-04","52","2016-02-19","373","Y","Y","Screening","0","2015-02-12","1","Serum","Potassium (mmol/L)","","3.5","5"
"01-017","Site 01","01","40","M","Hispanic","Treatment A","TRTA","Ongoing","2015-02-12","2015-08-05","175","Y","1","2015-04-04","52","2016-02-19","373","Y","Y","Screening","0","2015-02-12","1","Serum","Sodium (mmol/L)","143.947859638614","136","145"
"01-017","Site 01","01","40","M","Hispanic","Treatment A","TRTA","Ongoing","2015-02-12","2015-08-05","175","Y","1","2015-04-04","52","2016-02-19","373","Y","Y","Screening","0","2015-02-12","1","Serum","Total Bilirubin (μmol/L)","9.91725513291151","5.1","20.5"
"01-017","Site 01","01","40","M","Hispanic","Treatment A","TRTA","Ongoing","2015-02-12","2015-08-05","175","Y","1","2015-04-04","52","2016-02-19","373","Y","Y","Visit 1","1","2015-04-04","52","Blood","Platelet count (x 109/L)","163.682096140391","150","350"
"01-017","Site 01","01","40","M","Hispanic","Treatment A","TRTA","Ongoing","2015-02-12","2015-08-05","175","Y","1","2015-04-04","52","2016-02-19","373","Y","Y","Visit 1","1","2015-04-04","52","Blood","RBC count (x 1012 cells/L)","4.44238143483607","4.2","5.9"
"01-017","Site 01","01","40","M","Hispanic","Treatment A","TRTA","Ongoing","2015-02-12","2015-08-05","175","Y","1","2015-04-04","52","2016-02-19","373","Y","Y","Visit 1","1","2015-04-04","52","Blood","WBC count (x 109 cells/L)","2.49122848556736","4.5","11"
"01-017","Site 01","01","40","M","Hispanic","Treatment A","TRTA","Ongoing","2015-02-12","2015-08-05","175","Y","1","2015-04-04","52","2016-02-19","373","Y","Y","Visit 1","1","2015-04-04","52","Serum","Albumin (g/L)","46.2494087116436","35","55"
"01-017","Site 01","01","40","M","Hispanic","Treatment A","TRTA","Ongoing","2015-02-12","2015-08-05","175","Y","1","2015-04-04","52","2016-02-19","373","Y","Y","Visit 1","1","2015-04-04","52","Serum","Alkaline phosphatase (ALP) (μkat/L)","1.82176016616302","0.5","1.5"
"01-017","Site 01","01","40","M","Hispanic","Treatment A","TRTA","Ongoing","2015-02-12","2015-08-05","175","Y","1","2015-04-04","52","2016-02-19","373","Y","Y","Visit 1","1","2015-04-04","52","Serum","Aminotransferase, alanine (ALT) (pkat/L)","0.311294823612392","0","0.58"
"01-017","Site 01","01","40","M","Hispanic","Treatment A","TRTA","Ongoing","2015-02-12","2015-08-05","175","Y","1","2015-04-04","52","2016-02-19","373","Y","Y","Visit 1","1","2015-04-04","52","Serum","Aminotransferase, aspartate (AST) (pkat/L)","0.388562675836453","0","0.58"
"01-017","Site 01","01","40","M","Hispanic","Treatment A","TRTA","Ongoing","2015-02-12","2015-08-05","175","Y","1","2015-04-04","52","2016-02-19","373","Y","Y","Visit 1","1","2015-04-04","52","Serum","Calcium (mmol/L)","","2.2","2.6"
"01-017","Site 01","01","40","M","Hispanic","Treatment A","TRTA","Ongoing","2015-02-12","2015-08-05","175","Y","1","2015-04-04","52","2016-02-19","373","Y","Y","Visit 1","1","2015-04-04","52","Serum","Chloride (mmol/L)","103.045394019221","98","106"
"01-017","Site 01","01","40","M","Hispanic","Treatment A","TRTA","Ongoing","2015-02-12","2015-08-05","175","Y","1","2015-04-04","52","2016-02-19","373","Y","Y","Visit 1","1","2015-04-04","52","Serum","Creatinine (μmol/L)","117.897265593463","61.9","115"
"01-017","Site 01","01","40","M","Hispanic","Treatment A","TRTA","Ongoing","2015-02-12","2015-08-05","175","Y","1","2015-04-04","52","2016-02-19","373","Y","Y","Visit 1","1","2015-04-04","52","Serum","Direct Bilirubin (μmol/L)","0.852184700165432","0","5.1"
"01-017","Site 01","01","40","M","Hispanic","Treatment A","TRTA","Ongoing","2015-02-12","2015-08-05","175","Y","1","2015-04-04","52","2016-02-19","373","Y","Y","Visit 1","1","2015-04-04","52","Serum","IgE (mg/L)","0.482628530516524","0.1","0.4"
"01-017","Site 01","01","40","M","Hispanic","Treatment A","TRTA","Ongoing","2015-02-12","2015-08-05","175","Y","1","2015-04-04","52","2016-02-19","373","Y","Y","Visit 1","1","2015-04-04","52","Serum","Magnesium (mmol/L)","0.519797179867912","0.62","0.99"
"01-017","Site 01","01","40","M","Hispanic","Treatment A","TRTA","Ongoing","2015-02-12","2015-08-05","175","Y","1","2015-04-04","52","2016-02-19","373","Y","Y","Visit 1","1","2015-04-04","52","Serum","Potassium (mmol/L)","3.43582264992518","3.5","5"
"01-017","Site 01","01","40","M","Hispanic","Treatment A","TRTA","Ongoing","2015-02-12","2015-08-05","175","Y","1","2015-04-04","52","2016-02-19","373","Y","Y","Visit 1","1","2015-04-04","52","Serum","Sodium (mmol/L)","141.534453300143","136","145"
"01-017","Site 01","01","40","M","Hispanic","Treatment A","TRTA","Ongoing","2015-02-12","2015-08-05","175","Y","1","2015-04-04","52","2016-02-19","373","Y","Y","Visit 1","1","2015-04-04","52","Serum","Total Bilirubin (μmol/L)","14.0207921622965","5.1","20.5"
"01-017","Site 01","01","40","M","Hispanic","Treatment A","TRTA","Ongoing","2015-02-12","2015-08-05","175","Y","1","2015-04-04","52","2016-02-19","373","Y","Y","Visit 2","2","2015-06-01","110","Blood","Platelet count (x 109/L)","376.397681773702","150","350"
"01-017","Site 01","01","40","M","Hispanic","Treatment A","TRTA","Ongoing","2015-02-12","2015-08-05","175","Y","1","2015-04-04","52","2016-02-19","373","Y","Y","Visit 2","2","2015-06-01","110","Blood","RBC count (x 1012 cells/L)","4.13833721807718","4.2","5.9"
"01-017","Site 01","01","40","M","Hispanic","Treatment A","TRTA","Ongoing","2015-02-12","2015-08-05","175","Y","1","2015-04-04","52","2016-02-19","373","Y","Y","Visit 2","2","2015-06-01","110","Blood","WBC count (x 109 cells/L)","8.88523719387585","4.5","11"
"01-017","Site 01","01","40","M","Hispanic","Treatment A","TRTA","Ongoing","2015-02-12","2015-08-05","175","Y","1","2015-04-04","52","2016-02-19","373","Y","Y","Visit 2","2","2015-06-01","110","Serum","Albumin (g/L)","52.2372984482254","35","55"
"01-017","Site 01","01","40","M","Hispanic","Treatment A","TRTA","Ongoing","2015-02-12","2015-08-05","175","Y","1","2015-04-04","52","2016-02-19","373","Y","Y","Visit 2","2","2015-06-01","110","Serum","Alkaline phosphatase (ALP) (μkat/L)","1.42889507181819","0.5","1.5"
"01-017","Site 01","01","40","M","Hispanic","Treatment A","TRTA","Ongoing","2015-02-12","2015-08-05","175","Y","1","2015-04-04","52","2016-02-19","373","Y","Y","Visit 2","2","2015-06-01","110","Serum","Aminotransferase, alanine (ALT) (pkat/L)","0.0289932436957296","0","0.58"
"01-017","Site 01","01","40","M","Hispanic","Treatment A","TRTA","Ongoing","2015-02-12","2015-08-05","175","Y","1","2015-04-04","52","2016-02-19","373","Y","Y","Visit 2","2","2015-06-01","110","Serum","Aminotransferase, aspartate (AST) (pkat/L)","","0","0.58"
"01-017","Site 01","01","40","M","Hispanic","Treatment A","TRTA","Ongoing","2015-02-12","2015-08-05","175","Y","1","2015-04-04","52","2016-02-19","373","Y","Y","Visit 2","2","2015-06-01","110","Serum","Calcium (mmol/L)","2.5328744693738","2.2","2.6"
"01-017","Site 01","01","40","M","Hispanic","Treatment A","TRTA","Ongoing","2015-02-12","2015-08-05","175","Y","1","2015-04-04","52","2016-02-19","373","Y","Y","Visit 2","2","2015-06-01","110","Serum","Chloride (mmol/L)","106.603298203916","98","106"
"01-017","Site 01","01","40","M","Hispanic","Treatment A","TRTA","Ongoing","2015-02-12","2015-08-05","175","Y","1","2015-04-04","52","2016-02-19","373","Y","Y","Visit 2","2","2015-06-01","110","Serum","Creatinine (μmol/L)","69.0643424462765","61.9","115"
"01-017","Site 01","01","40","M","Hispanic","Treatment A","TRTA","Ongoing","2015-02-12","2015-08-05","175","Y","1","2015-04-04","52","2016-02-19","373","Y","Y","Visit 2","2","2015-06-01","110","Serum","Direct Bilirubin (μmol/L)","2.43592542381113","0","5.1"
"01-017","Site 01","01","40","M","Hispanic","Treatment A","TRTA","Ongoing","2015-02-12","2015-08-05","175","Y","1","2015-04-04","52","2016-02-19","373","Y","Y","Visit 2","2","2015-06-01","110","Serum","IgE (mg/L)","0.256154268477539","0.1","0.4"
"01-017","Site 01","01","40","M","Hispanic","Treatment A","TRTA","Ongoing","2015-02-12","2015-08-05","175","Y","1","2015-04-04","52","2016-02-19","373","Y","Y","Visit 2","2","2015-06-01","110","Serum","Magnesium (mmol/L)","0.745061356066431","0.62","0.99"
"01-017","Site 01","01","40","M","Hispanic","Treatment A","TRTA","Ongoing","2015-02-12","2015-08-05","175","Y","1","2015-04-04","52","2016-02-19","373","Y","Y","Visit 2","2","2015-06-01","110","Serum","Potassium (mmol/L)","5.17611180251673","3.5","5"
"01-017","Site 01","01","40","M","Hispanic","Treatment A","TRTA","Ongoing","2015-02-12","2015-08-05","175","Y","1","2015-04-04","52","2016-02-19","373","Y","Y","Visit 2","2","2015-06-01","110","Serum","Sodium (mmol/L)","142.724729492547","136","145"
"01-017","Site 01","01","40","M","Hispanic","Treatment A","TRTA","Ongoing","2015-02-12","2015-08-05","175","Y","1","2015-04-04","52","2016-02-19","373","Y","Y","Visit 2","2","2015-06-01","110","Serum","Total Bilirubin (μmol/L)","20.5789994655609","5.1","20.5"
"01-018","Site 01","01","29","F","Hispanic","Treatment B","TRTB","Ongoing","2015-02-13","2015-07-01","139","Y","1","2015-04-04","51","2016-02-09","362","Y","N","Screening","0","2015-02-13","1","Blood","Platelet count (x 109/L)","180.925780254354","150","350"
"01-018","Site 01","01","29","F","Hispanic","Treatment B","TRTB","Ongoing","2015-02-13","2015-07-01","139","Y","1","2015-04-04","51","2016-02-09","362","Y","N","Screening","0","2015-02-13","1","Blood","RBC count (x 1012 cells/L)","4.93054192968877","4.2","5.9"
"01-018","Site 01","01","29","F","Hispanic","Treatment B","TRTB","Ongoing","2015-02-13","2015-07-01","139","Y","1","2015-04-04","51","2016-02-09","362","Y","N","Screening","0","2015-02-13","1","Blood","WBC count (x 109 cells/L)","8.79824137316978","4.5","11"
"01-018","Site 01","01","29","F","Hispanic","Treatment B","TRTB","Ongoing","2015-02-13","2015-07-01","139","Y","1","2015-04-04","51","2016-02-09","362","Y","N","Screening","0","2015-02-13","1","Serum","Albumin (g/L)","28.6344783877293","35","55"
"01-018","Site 01","01","29","F","Hispanic","Treatment B","TRTB","Ongoing","2015-02-13","2015-07-01","139","Y","1","2015-04-04","51","2016-02-09","362","Y","N","Screening","0","2015-02-13","1","Serum","Alkaline phosphatase (ALP) (μkat/L)","1.0905752142374","0.5","1.5"
"01-018","Site 01","01","29","F","Hispanic","Treatment B","TRTB","Ongoing","2015-02-13","2015-07-01","139","Y","1","2015-04-04","51","2016-02-09","362","Y","N","Screening","0","2015-02-13","1","Serum","Aminotransferase, alanine (ALT) (pkat/L)","0.505160956837904","0","0.58"
"01-018","Site 01","01","29","F","Hispanic","Treatment B","TRTB","Ongoing","2015-02-13","2015-07-01","139","Y","1","2015-04-04","51","2016-02-09","362","Y","N","Screening","0","2015-02-13","1","Serum","Aminotransferase, aspartate (AST) (pkat/L)","0.338429760887228","0","0.58"
"01-018","Site 01","01","29","F","Hispanic","Treatment B","TRTB","Ongoing","2015-02-13","2015-07-01","139","Y","1","2015-04-04","51","2016-02-09","362","Y","N","Screening","0","2015-02-13","1","Serum","Calcium (mmol/L)","2.40505512529952","2.2","2.6"
"01-018","Site 01","01","29","F","Hispanic","Treatment B","TRTB","Ongoing","2015-02-13","2015-07-01","139","Y","1","2015-04-04","51","2016-02-09","362","Y","N","Screening","0","2015-02-13","1","Serum","Chloride (mmol/L)","100.96860034653","98","106"
"01-018","Site 01","01","29","F","Hispanic","Treatment B","TRTB","Ongoing","2015-02-13","2015-07-01","139","Y","1","2015-04-04","51","2016-02-09","362","Y","N","Screening","0","2015-02-13","1","Serum","Creatinine (μmol/L)","","61.9","115"
"01-018","Site 01","01","29","F","Hispanic","Treatment B","TRTB","Ongoing","2015-02-13","2015-07-01","139","Y","1","2015-04-04","51","2016-02-09","362","Y","N","Screening","0","2015-02-13","1","Serum","Direct Bilirubin (μmol/L)","2.23399837660197","0","5.1"
"01-018","Site 01","01","29","F","Hispanic","Treatment B","TRTB","Ongoing","2015-02-13","2015-07-01","139","Y","1","2015-04-04","51","2016-02-09","362","Y","N","Screening","0","2015-02-13","1","Serum","IgE (mg/L)","0.132878364687157","0.1","0.4"
"01-018","Site 01","01","29","F","Hispanic","Treatment B","TRTB","Ongoing","2015-02-13","2015-07-01","139","Y","1","2015-04-04","51","2016-02-09","362","Y","N","Screening","0","2015-02-13","1","Serum","Magnesium (mmol/L)","0.758924657045009","0.62","0.99"
"01-018","Site 01","01","29","F","Hispanic","Treatment B","TRTB","Ongoing","2015-02-13","2015-07-01","139","Y","1","2015-04-04","51","2016-02-09","362","Y","N","Screening","0","2015-02-13","1","Serum","Potassium (mmol/L)","4.78787897183714","3.5","5"
"01-018","Site 01","01","29","F","Hispanic","Treatment B","TRTB","Ongoing","2015-02-13","2015-07-01","139","Y","1","2015-04-04","51","2016-02-09","362","Y","N","Screening","0","2015-02-13","1","Serum","Sodium (mmol/L)","144.361391918282","136","145"
"01-018","Site 01","01","29","F","Hispanic","Treatment B","TRTB","Ongoing","2015-02-13","2015-07-01","139","Y","1","2015-04-04","51","2016-02-09","362","Y","N","Screening","0","2015-02-13","1","Serum","Total Bilirubin (μmol/L)","8.82997313537612","5.1","20.5"
"01-018","Site 01","01","29","F","Hispanic","Treatment B","TRTB","Ongoing","2015-02-13","2015-07-01","139","Y","1","2015-04-04","51","2016-02-09","362","Y","N","Visit 1","1","2015-04-04","51","Blood","Platelet count (x 109/L)","118.482590945629","150","350"
"01-018","Site 01","01","29","F","Hispanic","Treatment B","TRTB","Ongoing","2015-02-13","2015-07-01","139","Y","1","2015-04-04","51","2016-02-09","362","Y","N","Visit 1","1","2015-04-04","51","Blood","RBC count (x 1012 cells/L)","3.64734340225825","4.2","5.9"
"01-018","Site 01","01","29","F","Hispanic","Treatment B","TRTB","Ongoing","2015-02-13","2015-07-01","139","Y","1","2015-04-04","51","2016-02-09","362","Y","N","Visit 1","1","2015-04-04","51","Blood","WBC count (x 109 cells/L)","6.28152321185565","4.5","11"
"01-018","Site 01","01","29","F","Hispanic","Treatment B","TRTB","Ongoing","2015-02-13","2015-07-01","139","Y","1","2015-04-04","51","2016-02-09","362","Y","N","Visit 1","1","2015-04-04","51","Serum","Albumin (g/L)","38.9639464810801","35","55"
"01-018","Site 01","01","29","F","Hispanic","Treatment B","TRTB","Ongoing","2015-02-13","2015-07-01","139","Y","1","2015-04-04","51","2016-02-09","362","Y","N","Visit 1","1","2015-04-04","51","Serum","Alkaline phosphatase (ALP) (μkat/L)","0.840727527891477","0.5","1.5"
"01-018","Site 01","01","29","F","Hispanic","Treatment B","TRTB","Ongoing","2015-02-13","2015-07-01","139","Y","1","2015-04-04","51","2016-02-09","362","Y","N","Visit 1","1","2015-04-04","51","Serum","Aminotransferase, alanine (ALT) (pkat/L)","0.0616805765709209","0","0.58"
"01-018","Site 01","01","29","F","Hispanic","Treatment B","TRTB","Ongoing","2015-02-13","2015-07-01","139","Y","1","2015-04-04","51","2016-02-09","362","Y","N","Visit 1","1","2015-04-04","51","Serum","Aminotransferase, aspartate (AST) (pkat/L)","0.766332699980969","0","0.58"
"01-018","Site 01","01","29","F","Hispanic","Treatment B","TRTB","Ongoing","2015-02-13","2015-07-01","139","Y","1","2015-04-04","51","2016-02-09","362","Y","N","Visit 1","1","2015-04-04","51","Serum","Calcium (mmol/L)","","2.2","2.6"
"01-018","Site 01","01","29","F","Hispanic","Treatment B","TRTB","Ongoing","2015-02-13","2015-07-01","139","Y","1","2015-04-04","51","2016-02-09","362","Y","N","Visit 1","1","2015-04-04","51","Serum","Chloride (mmol/L)","107.825598319221","98","106"
"01-018","Site 01","01","29","F","Hispanic","Treatment B","TRTB","Ongoing","2015-02-13","2015-07-01","139","Y","1","2015-04-04","51","2016-02-09","362","Y","N","Visit 1","1","2015-04-04","51","Serum","Creatinine (μmol/L)","29.6583969379298","61.9","115"
"01-018","Site 01","01","29","F","Hispanic","Treatment B","TRTB","Ongoing","2015-02-13","2015-07-01","139","Y","1","2015-04-04","51","2016-02-09","362","Y","N","Visit 1","1","2015-04-04","51","Serum","Direct Bilirubin (μmol/L)","2.68005618994082","0","5.1"
"01-018","Site 01","01","29","F","Hispanic","Treatment B","TRTB","Ongoing","2015-02-13","2015-07-01","139","Y","1","2015-04-04","51","2016-02-09","362","Y","N","Visit 1","1","2015-04-04","51","Serum","IgE (mg/L)","0.111156173785332","0.1","0.4"
"01-018","Site 01","01","29","F","Hispanic","Treatment B","TRTB","Ongoing","2015-02-13","2015-07-01","139","Y","1","2015-04-04","51","2016-02-09","362","Y","N","Visit 1","1","2015-04-04","51","Serum","Magnesium (mmol/L)","0.632551373510518","0.62","0.99"
"01-018","Site 01","01","29","F","Hispanic","Treatment B","TRTB","Ongoing","2015-02-13","2015-07-01","139","Y","1","2015-04-04","51","2016-02-09","362","Y","N","Visit 1","1","2015-04-04","51","Serum","Potassium (mmol/L)","3.81346742558466","3.5","5"
"01-018","Site 01","01","29","F","Hispanic","Treatment B","TRTB","Ongoing","2015-02-13","2015-07-01","139","Y","1","2015-04-04","51","2016-02-09","362","Y","N","Visit 1","1","2015-04-04","51","Serum","Sodium (mmol/L)","140.084922075062","136","145"
"01-018","Site 01","01","29","F","Hispanic","Treatment B","TRTB","Ongoing","2015-02-13","2015-07-01","139","Y","1","2015-04-04","51","2016-02-09","362","Y","N","Visit 1","1","2015-04-04","51","Serum","Total Bilirubin (μmol/L)","10.4150956062608","5.1","20.5"
"01-019","Site 01","01","47","M","Other/Mixed","Treatment B","TRTB","Ongoing","2015-04-24","2016-01-31","283","Y","1","2015-06-15","53","2016-04-27","370","Y","Y","Screening","0","2015-04-24","1","Blood","Platelet count (x 109/L)","456.678225274279","150","350"
"01-019","Site 01","01","47","M","Other/Mixed","Treatment B","TRTB","Ongoing","2015-04-24","2016-01-31","283","Y","1","2015-06-15","53","2016-04-27","370","Y","Y","Screening","0","2015-04-24","1","Blood","RBC count (x 1012 cells/L)","4.8080472333965","4.2","5.9"
"01-019","Site 01","01","47","M","Other/Mixed","Treatment B","TRTB","Ongoing","2015-04-24","2016-01-31","283","Y","1","2015-06-15","53","2016-04-27","370","Y","Y","Screening","0","2015-04-24","1","Blood","WBC count (x 109 cells/L)","7.95824970996229","4.5","11"
"01-019","Site 01","01","47","M","Other/Mixed","Treatment B","TRTB","Ongoing","2015-04-24","2016-01-31","283","Y","1","2015-06-15","53","2016-04-27","370","Y","Y","Screening","0","2015-04-24","1","Serum","Albumin (g/L)","61.0974076374578","35","55"
"01-019","Site 01","01","47","M","Other/Mixed","Treatment B","TRTB","Ongoing","2015-04-24","2016-01-31","283","Y","1","2015-06-15","53","2016-04-27","370","Y","Y","Screening","0","2015-04-24","1","Serum","Alkaline phosphatase (ALP) (μkat/L)","1.37250131761165","0.5","1.5"
"01-019","Site 01","01","47","M","Other/Mixed","Treatment B","TRTB","Ongoing","2015-04-24","2016-01-31","283","Y","1","2015-06-15","53","2016-04-27","370","Y","Y","Screening","0","2015-04-24","1","Serum","Aminotransferase, alanine (ALT) (pkat/L)","0.164943993502411","0","0.58"
"01-019","Site 01","01","47","M","Other/Mixed","Treatment B","TRTB","Ongoing","2015-04-24","2016-01-31","283","Y","1","2015-06-15","53","2016-04-27","370","Y","Y","Screening","0","2015-04-24","1","Serum","Aminotransferase, aspartate (AST) (pkat/L)","0.194613868812165","0","0.58"
"01-019","Site 01","01","47","M","Other/Mixed","Treatment B","TRTB","Ongoing","2015-04-24","2016-01-31","283","Y","1","2015-06-15","53","2016-04-27","370","Y","Y","Screening","0","2015-04-24","1","Serum","Calcium (mmol/L)","2.35504581106081","2.2","2.6"
"01-019","Site 01","01","47","M","Other/Mixed","Treatment B","TRTB","Ongoing","2015-04-24","2016-01-31","283","Y","1","2015-06-15","53","2016-04-27","370","Y","Y","Screening","0","2015-04-24","1","Serum","Chloride (mmol/L)","93.839047649252","98","106"
"01-019","Site 01","01","47","M","Other/Mixed","Treatment B","TRTB","Ongoing","2015-04-24","2016-01-31","283","Y","1","2015-06-15","53","2016-04-27","370","Y","Y","Screening","0","2015-04-24","1","Serum","Creatinine (μmol/L)","111.502326076589","61.9","115"
"01-019","Site 01","01","47","M","Other/Mixed","Treatment B","TRTB","Ongoing","2015-04-24","2016-01-31","283","Y","1","2015-06-15","53","2016-04-27","370","Y","Y","Screening","0","2015-04-24","1","Serum","Direct Bilirubin (μmol/L)","3.26836044602966","0","5.1"
"01-019","Site 01","01","47","M","Other/Mixed","Treatment B","TRTB","Ongoing","2015-04-24","2016-01-31","283","Y","1","2015-06-15","53","2016-04-27","370","Y","Y","Screening","0","2015-04-24","1","Serum","IgE (mg/L)","0.173721634661266","0.1","0.4"
"01-019","Site 01","01","47","M","Other/Mixed","Treatment B","TRTB","Ongoing","2015-04-24","2016-01-31","283","Y","1","2015-06-15","53","2016-04-27","370","Y","Y","Screening","0","2015-04-24","1","Serum","Magnesium (mmol/L)","0.697410966082824","0.62","0.99"
"01-019","Site 01","01","47","M","Other/Mixed","Treatment B","TRTB","Ongoing","2015-04-24","2016-01-31","283","Y","1","2015-06-15","53","2016-04-27","370","Y","Y","Screening","0","2015-04-24","1","Serum","Potassium (mmol/L)","3.99592148430212","3.5","5"
"01-019","Site 01","01","47","M","Other/Mixed","Treatment B","TRTB","Ongoing","2015-04-24","2016-01-31","283","Y","1","2015-06-15","53","2016-04-27","370","Y","Y","Screening","0","2015-04-24","1","Serum","Sodium (mmol/L)","140.783775575645","136","145"
"01-019","Site 01","01","47","M","Other/Mixed","Treatment B","TRTB","Ongoing","2015-04-24","2016-01-31","283","Y","1","2015-06-15","53","2016-04-27","370","Y","Y","Screening","0","2015-04-24","1","Serum","Total Bilirubin (μmol/L)","3.29164486364207","5.1","20.5"
"01-019","Site 01","01","47","M","Other/Mixed","Treatment B","TRTB","Ongoing","2015-04-24","2016-01-31","283","Y","1","2015-06-15","53","2016-04-27","370","Y","Y","Visit 1","1","2015-06-15","53","Blood","Platelet count (x 109/L)","352.801398765362","150","350"
"01-019","Site 01","01","47","M","Other/Mixed","Treatment B","TRTB","Ongoing","2015-04-24","2016-01-31","283","Y","1","2015-06-15","53","2016-04-27","370","Y","Y","Visit 1","1","2015-06-15","53","Blood","RBC count (x 1012 cells/L)","4.47993667740587","4.2","5.9"
"01-019","Site 01","01","47","M","Other/Mixed","Treatment B","TRTB","Ongoing","2015-04-24","2016-01-31","283","Y","1","2015-06-15","53","2016-04-27","370","Y","Y","Visit 1","1","2015-06-15","53","Blood","WBC count (x 109 cells/L)","3.55480701128951","4.5","11"
"01-019","Site 01","01","47","M","Other/Mixed","Treatment B","TRTB","Ongoing","2015-04-24","2016-01-31","283","Y","1","2015-06-15","53","2016-04-27","370","Y","Y","Visit 1","1","2015-06-15","53","Serum","Albumin (g/L)","42.9253645623885","35","55"
"01-019","Site 01","01","47","M","Other/Mixed","Treatment B","TRTB","Ongoing","2015-04-24","2016-01-31","283","Y","1","2015-06-15","53","2016-04-27","370","Y","Y","Visit 1","1","2015-06-15","53","Serum","Alkaline phosphatase (ALP) (μkat/L)","0.889671973813787","0.5","1.5"
"01-019","Site 01","01","47","M","Other/Mixed","Treatment B","TRTB","Ongoing","2015-04-24","2016-01-31","283","Y","1","2015-06-15","53","2016-04-27","370","Y","Y","Visit 1","1","2015-06-15","53","Serum","Aminotransferase, alanine (ALT) (pkat/L)","0.252477227919723","0","0.58"
"01-019","Site 01","01","47","M","Other/Mixed","Treatment B","TRTB","Ongoing","2015-04-24","2016-01-31","283","Y","1","2015-06-15","53","2016-04-27","370","Y","Y","Visit 1","1","2015-06-15","53","Serum","Aminotransferase, aspartate (AST) (pkat/L)","0.379256300122657","0","0.58"
"01-019","Site 01","01","47","M","Other/Mixed","Treatment B","TRTB","Ongoing","2015-04-24","2016-01-31","283","Y","1","2015-06-15","53","2016-04-27","370","Y","Y","Visit 1","1","2015-06-15","53","Serum","Calcium (mmol/L)","","2.2","2.6"
"01-019","Site 01","01","47","M","Other/Mixed","Treatment B","TRTB","Ongoing","2015-04-24","2016-01-31","283","Y","1","2015-06-15","53","2016-04-27","370","Y","Y","Visit 1","1","2015-06-15","53","Serum","Chloride (mmol/L)","100.265838320933","98","106"
"01-019","Site 01","01","47","M","Other/Mixed","Treatment B","TRTB","Ongoing","2015-04-24","2016-01-31","283","Y","1","2015-06-15","53","2016-04-27","370","Y","Y","Visit 1","1","2015-06-15","53","Serum","Creatinine (μmol/L)","68.3064933929743","61.9","115"
"01-019","Site 01","01","47","M","Other/Mixed","Treatment B","TRTB","Ongoing","2015-04-24","2016-01-31","283","Y","1","2015-06-15","53","2016-04-27","370","Y","Y","Visit 1","1","2015-06-15","53","Serum","Direct Bilirubin (μmol/L)","6.3262942888608","0","5.1"
"01-019","Site 01","01","47","M","Other/Mixed","Treatment B","TRTB","Ongoing","2015-04-24","2016-01-31","283","Y","1","2015-06-15","53","2016-04-27","370","Y","Y","Visit 1","1","2015-06-15","53","Serum","IgE (mg/L)","0.151717569962247","0.1","0.4"
"01-019","Site 01","01","47","M","Other/Mixed","Treatment B","TRTB","Ongoing","2015-04-24","2016-01-31","283","Y","1","2015-06-15","53","2016-04-27","370","Y","Y","Visit 1","1","2015-06-15","53","Serum","Magnesium (mmol/L)","0.90017991704221","0.62","0.99"
"01-019","Site 01","01","47","M","Other/Mixed","Treatment B","TRTB","Ongoing","2015-04-24","2016-01-31","283","Y","1","2015-06-15","53","2016-04-27","370","Y","Y","Visit 1","1","2015-06-15","53","Serum","Potassium (mmol/L)","4.47571829610284","3.5","5"
"01-019","Site 01","01","47","M","Other/Mixed","Treatment B","TRTB","Ongoing","2015-04-24","2016-01-31","283","Y","1","2015-06-15","53","2016-04-27","370","Y","Y","Visit 1","1","2015-06-15","53","Serum","Sodium (mmol/L)","138.544412010564","136","145"
"01-019","Site 01","01","47","M","Other/Mixed","Treatment B","TRTB","Ongoing","2015-04-24","2016-01-31","283","Y","1","2015-06-15","53","2016-04-27","370","Y","Y","Visit 1","1","2015-06-15","53","Serum","Total Bilirubin (μmol/L)","16.3873163970804","5.1","20.5"
"01-019","Site 01","01","47","M","Other/Mixed","Treatment B","TRTB","Ongoing","2015-04-24","2016-01-31","283","Y","1","2015-06-15","53","2016-04-27","370","Y","Y","Visit 2","2","2015-08-13","112","Blood","Platelet count (x 109/L)","67.3158408336754","150","350"
"01-019","Site 01","01","47","M","Other/Mixed","Treatment B","TRTB","Ongoing","2015-04-24","2016-01-31","283","Y","1","2015-06-15","53","2016-04-27","370","Y","Y","Visit 2","2","2015-08-13","112","Blood","RBC count (x 1012 cells/L)","3.01921139908626","4.2","5.9"
"01-019","Site 01","01","47","M","Other/Mixed","Treatment B","TRTB","Ongoing","2015-04-24","2016-01-31","283","Y","1","2015-06-15","53","2016-04-27","370","Y","Y","Visit 2","2","2015-08-13","112","Blood","WBC count (x 109 cells/L)","13.3499584157604","4.5","11"
"01-019","Site 01","01","47","M","Other/Mixed","Treatment B","TRTB","Ongoing","2015-04-24","2016-01-31","283","Y","1","2015-06-15","53","2016-04-27","370","Y","Y","Visit 2","2","2015-08-13","112","Serum","Albumin (g/L)","45.927084177525","35","55"
"01-019","Site 01","01","47","M","Other/Mixed","Treatment B","TRTB","Ongoing","2015-04-24","2016-01-31","283","Y","1","2015-06-15","53","2016-04-27","370","Y","Y","Visit 2","2","2015-08-13","112","Serum","Alkaline phosphatase (ALP) (μkat/L)","1.07150753473461","0.5","1.5"
"01-019","Site 01","01","47","M","Other/Mixed","Treatment B","TRTB","Ongoing","2015-04-24","2016-01-31","283","Y","1","2015-06-15","53","2016-04-27","370","Y","Y","Visit 2","2","2015-08-13","112","Serum","Aminotransferase, alanine (ALT) (pkat/L)","0.287687201063858","0","0.58"
"01-019","Site 01","01","47","M","Other/Mixed","Treatment B","TRTB","Ongoing","2015-04-24","2016-01-31","283","Y","1","2015-06-15","53","2016-04-27","370","Y","Y","Visit 2","2","2015-08-13","112","Serum","Aminotransferase, aspartate (AST) (pkat/L)","","0","0.58"
"01-019","Site 01","01","47","M","Other/Mixed","Treatment B","TRTB","Ongoing","2015-04-24","2016-01-31","283","Y","1","2015-06-15","53","2016-04-27","370","Y","Y","Visit 2","2","2015-08-13","112","Serum","Calcium (mmol/L)","2.34339493613714","2.2","2.6"
"01-019","Site 01","01","47","M","Other/Mixed","Treatment B","TRTB","Ongoing","2015-04-24","2016-01-31","283","Y","1","2015-06-15","53","2016-04-27","370","Y","Y","Visit 2","2","2015-08-13","112","Serum","Chloride (mmol/L)","96.6596969639023","98","106"
"01-019","Site 01","01","47","M","Other/Mixed","Treatment B","TRTB","Ongoing","2015-04-24","2016-01-31","283","Y","1","2015-06-15","53","2016-04-27","370","Y","Y","Visit 2","2","2015-08-13","112","Serum","Creatinine (μmol/L)","135.322586802787","61.9","115"
"01-019","Site 01","01","47","M","Other/Mixed","Treatment B","TRTB","Ongoing","2015-04-24","2016-01-31","283","Y","1","2015-06-15","53","2016-04-27","370","Y","Y","Visit 2","2","2015-08-13","112","Serum","Direct Bilirubin (μmol/L)","4.28523001205764","0","5.1"
"01-019","Site 01","01","47","M","Other/Mixed","Treatment B","TRTB","Ongoing","2015-04-24","2016-01-31","283","Y","1","2015-06-15","53","2016-04-27","370","Y","Y","Visit 2","2","2015-08-13","112","Serum","IgE (mg/L)","0.293144736705968","0.1","0.4"
"01-019","Site 01","01","47","M","Other/Mixed","Treatment B","TRTB","Ongoing","2015-04-24","2016-01-31","283","Y","1","2015-06-15","53","2016-04-27","370","Y","Y","Visit 2","2","2015-08-13","112","Serum","Magnesium (mmol/L)","0.817095411559925","0.62","0.99"
"01-019","Site 01","01","47","M","Other/Mixed","Treatment B","TRTB","Ongoing","2015-04-24","2016-01-31","283","Y","1","2015-06-15","53","2016-04-27","370","Y","Y","Visit 2","2","2015-08-13","112","Serum","Potassium (mmol/L)","3.80946065092344","3.5","5"
"01-019","Site 01","01","47","M","Other/Mixed","Treatment B","TRTB","Ongoing","2015-04-24","2016-01-31","283","Y","1","2015-06-15","53","2016-04-27","370","Y","Y","Visit 2","2","2015-08-13","112","Serum","Sodium (mmol/L)","141.468724529527","136","145"
"01-019","Site 01","01","47","M","Other/Mixed","Treatment B","TRTB","Ongoing","2015-04-24","2016-01-31","283","Y","1","2015-06-15","53","2016-04-27","370","Y","Y","Visit 2","2","2015-08-13","112","Serum","Total Bilirubin (μmol/L)","5.53389601121583","5.1","20.5"
