"USUBJID","SITE","SITEID","AGE","SEX","RACE","ARM","ARMCD","SBJTSTAT","RFSTDTC","RFENDTC","RFENDY","SAFFL","SAFFN","RANDDT","RANDDY","COMPLDT","COMPLDY","ANYAEFL","ANYCMFL"
"01-001","Site 01","01","30","F","Other/Mixed","Placebo","PLACEBO","Early Termination","2015-05-21","2015-05-26","6","Y","1","2015-07-17","58","2016-05-09","355","Y","Y"
"01-002","Site 01","01","24","F","Black","Treatment A","TRTA","Ongoing","2015-05-30","2015-11-09","164","Y","1","2015-07-29","61","2016-05-29","366","Y","N"
"01-003","Site 01","01","43","F","Hispanic","Placebo","PLACEBO","Ongoing","2015-08-13","2016-02-23","195","Y","1","2015-10-04","53","2016-08-18","372","Y","Y"
"01-004","Site 01","01","42","F","Hispanic","Placebo","PLACEBO","Ongoing","2015-01-12","2015-04-26","105","Y","1","2015-03-02","50","2016-01-05","359","N","Y"
"01-005","Site 01","01","51","M","White","Treatment B","TRTB","Ongoing","2015-11-11","2016-03-18","129","Y","1","2016-01-01","52","2016-11-18","374","Y","N"
"01-006","Site 01","01","23","M","White","Screen Failure","SCRNFAIL","Screen Failure","2015-05-12","2015-05-12","1","N","0",,,,,"N","N"
"01-007","Site 01","01","20","M","Other/Mixed","Screen Failure","SCRNFAIL","Screen Failure","2015-09-10","2015-09-10","1","N","0",,,,,"N","N"
"01-008","Site 01","01","53","F","Black","Treatment B","TRTB","Ongoing","2015-11-21","2015-12-05","15","Y","1","2016-01-08","49","2016-11-14","360","Y","N"
"01-009","Site 01","01","44","M","White","Treatment B","TRTB","Ongoing","2015-11-25","2016-05-07","165","Y","1","2016-01-24","61","2016-11-29","371","Y","Y"
"01-010","Site 01","01","35","F","Black","Treatment B","TRTB","Ongoing","2015-01-06","2015-05-04","119","Y","1","2015-02-23","49","2016-01-10","370","N","N"
"01-011","Site 01","01","33","F","Other/Mixed","Treatment A","TRTA","Ongoing","2015-10-04","2016-01-23","112","Y","1","2015-11-30","58","2016-09-26","359","Y","N"
"01-012","Site 01","01","36","M","White","Placebo","PLACEBO","Ongoing","2015-04-18","2015-12-21","248","Y","1","2015-06-06","50","2016-04-26","375","N","Y"
"01-013","Site 01","01","40","F","White","Treatment A","TRTA","Ongoing","2015-07-15","2016-06-08","330","Y","1","2015-09-11","59","2016-07-08","360","Y","Y"
"01-014","Site 01","01","37","M","Black","Treatment A","TRTA","Ongoing","2015-07-24","2016-02-14","206","Y","1","2015-09-17","56","2016-07-21","364","Y","Y"
"01-015","Site 01","01","26","M","Hispanic","Treatment B","TRTB","Ongoing","2015-04-28","2015-11-07","194","Y","1","2015-06-15","49","2016-05-05","374","N","Y"
"01-016","Site 01","01","18","M","Black","Treatment A","TRTA","Ongoing","2015-12-21","2016-09-06","261","Y","1","2016-02-09","51","2016-12-28","374","Y","N"
"01-017","Site 01","01","40","M","Hispanic","Treatment A","TRTA","Ongoing","2015-02-12","2015-08-05","175","Y","1","2015-04-04","52","2016-02-19","373","Y","Y"
"01-018","Site 01","01","29","F","Hispanic","Treatment B","TRTB","Ongoing","2015-02-13","2015-07-01","139","Y","1","2015-04-04","51","2016-02-09","362","Y","N"
"01-019","Site 01","01","47","M","Other/Mixed","Treatment B","TRTB","Ongoing","2015-04-24","2016-01-31","283","Y","1","2015-06-15","53","2016-04-27","370","Y","Y"
"01-020","Site 01","01","27","M","Hispanic","Screen Failure","SCRNFAIL","Screen Failure","2015-06-17","2015-06-17","1","N","0",,,,,"N","N"
"01-021","Site 01","01","23","F","Black","Treatment A","TRTA","Ongoing","2015-10-04","2015-11-15","43","Y","1","2015-11-21","49","2016-10-01","364","Y","N"
"01-022","Site 01","01","27","F","Black","Treatment A","TRTA","Completed","2015-10-01","2016-09-20","356","Y","1","2015-11-28","59","2016-10-07","373","Y","Y"
"01-023","Site 01","01","48","M","Black","Treatment A","TRTA","Ongoing","2015-03-29","2015-09-03","159","Y","1","2015-05-22","55","2016-03-22","360","Y","Y"
"01-024","Site 01","01","24","F","Other/Mixed","Treatment B","TRTB","Ongoing","2015-04-23","2015-10-28","189","Y","1","2015-06-10","49","2016-04-25","369","N","Y"
"01-025","Site 01","01","21","M","White","Placebo","PLACEBO","Ongoing","2015-06-22","2015-09-25","96","Y","1","2015-08-15","55","2016-06-23","368","Y","Y"
"01-026","Site 01","01","25","F","White","Treatment A","TRTA","Completed","2015-02-19","2016-02-28","375","Y","1","2015-04-09","50","2016-02-25","372","Y","Y"
"01-027","Site 01","01","40","F","Other/Mixed","Treatment B","TRTB","Ongoing","2015-06-01","2015-10-24","146","Y","1","2015-07-26","56","2016-05-25","360","Y","Y"
"01-028","Site 01","01","21","F","Hispanic","Treatment B","TRTB","Completed","2015-11-12","2016-11-04","359","Y","1","2016-01-02","52","2016-11-04","359","Y","Y"
"01-029","Site 01","01","50","M","Black","Placebo","PLACEBO","Ongoing","2015-06-10","2016-05-23","349","Y","1","2015-08-06","58","2016-06-16","373","Y","Y"
"01-030","Site 01","01","25","M","Other/Mixed","Screen Failure","SCRNFAIL","Screen Failure","2015-01-18","2015-01-18","1","N","0",,,,,"N","N"
"02-001","Site 02","02","20","M","White","Screen Failure","SCRNFAIL","Screen Failure","2015-12-11","2015-12-11","1","N","0",,,,,"N","N"
"02-002","Site 02","02","42","F","White","Treatment B","TRTB","Ongoing","2015-03-16","2015-07-18","125","Y","1","2015-05-16","62","2016-03-22","373","Y","Y"
"02-003","Site 02","02","27","F","Hispanic","Placebo","PLACEBO","Ongoing","2015-04-27","2015-12-14","232","Y","1","2015-06-26","61","2016-05-05","375","Y","Y"
"02-004","Site 02","02","21","F","White","Placebo","PLACEBO","Ongoing","2015-09-30","2015-10-21","22","Y","1","2015-11-20","52","2016-10-05","372","Y","Y"
"02-005","Site 02","02","18","M","Hispanic","Treatment B","TRTB","Early Termination","2015-12-13","2016-07-21","222","Y","1","2016-02-10","60","2016-12-15","369","Y","N"
"02-006","Site 02","02","36","M","White","Placebo","PLACEBO","Early Termination","2015-06-03","2015-09-18","108","Y","1","2015-08-01","60","2016-05-24","357","Y","Y"
"02-007","Site 02","02","31","M","Hispanic","Screen Failure","SCRNFAIL","Screen Failure","2015-09-01","2015-09-01","1","N","0",,,,,"N","N"
"02-008","Site 02","02","21","F","Other/Mixed","Treatment B","TRTB","Completed","2015-08-17","2016-08-23","373","Y","1","2015-10-12","57","2016-08-14","364","Y","Y"
"02-009","Site 02","02","27","F","Black","Treatment B","TRTB","Ongoing","2015-12-13","2016-07-30","231","Y","1","2016-02-04","54","2016-12-09","363","Y","Y"
"02-010","Site 02","02","36","F","White","Treatment B","TRTB","Completed","2015-07-26","2016-07-18","359","Y","1","2015-09-13","50","2016-07-26","367","Y","Y"
"02-011","Site 02","02","40","F","Other/Mixed","Treatment A","TRTA","Ongoing","2015-10-08","2015-10-13","6","Y","1","2015-11-27","51","2016-10-14","373","Y","N"
"02-012","Site 02","02","37","F","Other/Mixed","Treatment B","TRTB","Ongoing","2015-09-30","2016-07-25","300","Y","1","2015-11-26","58","2016-09-18","355","Y","Y"
"02-013","Site 02","02","32","M","White","Treatment B","TRTB","Completed","2015-12-29","2016-12-20","358","Y","1","2016-02-24","58","2016-12-18","356","Y","Y"
"02-014","Site 02","02","19","F","Other/Mixed","Treatment A","TRTA","Ongoing","2015-04-13","2015-09-19","160","Y","1","2015-06-05","54","2016-04-16","370","Y","N"
"02-015","Site 02","02","29","M","White","Placebo","PLACEBO","Ongoing","2015-02-24","2015-05-14","80","Y","1","2015-04-17","53","2016-02-20","362","Y","Y"
"02-016","Site 02","02","25","M","Hispanic","Screen Failure","SCRNFAIL","Screen Failure","2015-10-24","2015-10-24","1","N","0",,,,,"N","N"
"02-017","Site 02","02","33","M","White","Placebo","PLACEBO","Completed","2015-04-06","2016-03-27","357","Y","1","2015-06-03","59","2016-03-25","355","Y","Y"
"02-018","Site 02","02","19","F","White","Placebo","PLACEBO","Completed","2015-11-23","2016-11-21","365","Y","1","2016-01-16","55","2016-11-13","357","Y","Y"
"02-019","Site 02","02","49","F","Black","Placebo","PLACEBO","Ongoing","2015-02-16","2015-09-27","224","Y","1","2015-04-06","50","2016-02-13","363","N","Y"
"02-020","Site 02","02","23","F","White","Treatment A","TRTA","Early Termination","2015-07-14","2016-06-18","341","Y","1","2015-09-03","52","2016-07-12","365","Y","Y"
"02-021","Site 02","02","53","F","Black","Treatment B","TRTB","Ongoing","2015-10-01","2016-09-03","339","Y","1","2015-11-22","53","2016-10-04","370","Y","Y"
"02-022","Site 02","02","30","M","White","Treatment B","TRTB","Ongoing","2015-12-27","2016-03-02","67","Y","1","2016-02-15","51","2016-12-16","356","Y","Y"
"02-023","Site 02","02","45","F","Black","Treatment A","TRTA","Completed","2015-12-06","2016-12-09","370","Y","1","2016-02-03","60","2016-11-26","357","Y","Y"
"02-024","Site 02","02","45","M","White","Treatment A","TRTA","Ongoing","2015-02-28","2015-07-20","143","Y","1","2015-04-27","59","2016-02-27","365","Y","Y"
"02-025","Site 02","02","36","F","Black","Screen Failure","SCRNFAIL","Screen Failure","2015-08-04","2015-08-04","1","N","0",,,,,"N","N"
"02-026","Site 02","02","27","F","Black","Placebo","PLACEBO","Completed","2015-04-03","2016-04-05","369","Y","1","2015-05-21","49","2016-03-25","358","Y","Y"
"02-027","Site 02","02","36","F","Hispanic","Treatment B","TRTB","Completed","2015-03-08","2016-03-02","361","Y","1","2015-04-25","49","2016-03-02","361","Y","Y"
"02-028","Site 02","02","29","M","Hispanic","Placebo","PLACEBO","Ongoing","2015-04-25","2015-12-12","232","Y","1","2015-06-18","55","2016-04-15","357","Y","N"
"02-029","Site 02","02","47","M","Black","Placebo","PLACEBO","Ongoing","2015-04-26","2016-04-15","356","Y","1","2015-06-17","53","2016-04-19","360","Y","Y"
"02-030","Site 02","02","41","M","Hispanic","Screen Failure","SCRNFAIL","Screen Failure","2015-12-11","2015-12-11","1","N","0",,,,,"N","N"
"03-001","Site 03","03","43","F","Hispanic","Treatment A","TRTA","Early Termination","2015-04-24","2015-05-15","22","Y","1","2015-06-13","51","2016-04-17","360","N","Y"
"03-002","Site 03","03","27","F","White","Treatment A","TRTA","Completed","2015-09-02","2016-08-30","364","Y","1","2015-10-31","60","2016-09-04","369","Y","N"
"03-003","Site 03","03","42","M","Black","Treatment B","TRTB","Ongoing","2015-05-26","2016-03-10","290","Y","1","2015-07-17","53","2016-05-29","370","Y","Y"
"03-004","Site 03","03","19","F","Hispanic","Placebo","PLACEBO","Completed","2015-12-03","2016-11-23","357","Y","1","2016-02-01","61","2016-12-10","374","N","Y"
"03-005","Site 03","03","48","M","Hispanic","Placebo","PLACEBO","Ongoing","2015-04-15","2015-10-11","180","Y","1","2015-06-14","61","2016-04-22","374","Y","Y"
"03-006","Site 03","03","52","M","Other/Mixed","Treatment B","TRTB","Ongoing","2015-05-24","2015-08-30","99","Y","1","2015-07-13","51","2016-05-16","359","Y","N"
"03-007","Site 03","03","49","F","Other/Mixed","Treatment A","TRTA","Completed","2015-08-18","2016-08-06","355","Y","1","2015-10-11","55","2016-08-16","365","Y","Y"
"03-008","Site 03","03","46","M","Black","Treatment B","TRTB","Ongoing","2015-03-08","2016-02-17","347","Y","1","2015-04-25","49","2016-02-29","359","Y","N"
"03-009","Site 03","03","28","F","White","Placebo","PLACEBO","Early Termination","2015-11-15","2016-02-19","97","Y","1","2016-01-04","51","2016-11-18","370","Y","Y"
"03-010","Site 03","03","40","M","White","Placebo","PLACEBO","Completed","2015-02-07","2016-02-13","372","Y","1","2015-04-06","59","2016-02-05","364","Y","Y"
"03-011","Site 03","03","43","M","Black","Treatment A","TRTA","Early Termination","2015-11-16","2016-01-05","51","Y","1","2016-01-04","50","2016-11-12","363","N","Y"
"03-012","Site 03","03","32","M","Black","Placebo","PLACEBO","Ongoing","2015-08-19","2016-05-19","275","Y","1","2015-10-13","56","2016-08-22","370","N","Y"
"03-013","Site 03","03","33","M","Other/Mixed","Placebo","PLACEBO","Ongoing","2015-10-28","2016-08-19","297","Y","1","2015-12-21","55","2016-10-20","359","Y","Y"
"03-014","Site 03","03","53","F","Black","Placebo","PLACEBO","Ongoing","2015-02-06","2015-03-07","30","Y","1","2015-04-09","63","2016-01-26","355","Y","Y"
"03-015","Site 03","03","24","F","Black","Placebo","PLACEBO","Completed","2015-07-21","2016-07-13","359","Y","1","2015-09-17","59","2016-07-28","374","Y","Y"
"03-016","Site 03","03","20","F","White","Treatment A","TRTA","Ongoing","2015-05-04","2015-07-04","62","Y","1","2015-06-30","58","2016-04-22","355","Y","N"
"03-017","Site 03","03","43","M","Black","Treatment B","TRTB","Ongoing","2015-06-26","2015-10-27","124","Y","1","2015-08-14","50","2016-06-20","361","Y","Y"
"03-018","Site 03","03","19","M","Hispanic","Placebo","PLACEBO","Ongoing","2015-05-30","2015-08-30","93","Y","1","2015-07-20","52","2016-06-05","373","N","Y"
"03-019","Site 03","03","18","M","Hispanic","Treatment B","TRTB","Completed","2015-11-06","2016-11-07","368","Y","1","2016-01-05","61","2016-10-25","355","N","Y"
"03-020","Site 03","03","50","M","White","Treatment A","TRTA","Ongoing","2015-08-09","2015-12-09","123","Y","1","2015-09-27","50","2016-07-31","358","Y","Y"
"03-021","Site 03","03","18","M","Hispanic","Treatment A","TRTA","Ongoing","2015-09-21","2016-08-09","324","Y","1","2015-11-12","53","2016-09-11","357","Y","Y"
"03-022","Site 03","03","49","M","Hispanic","Placebo","PLACEBO","Ongoing","2015-05-14","2016-04-14","337","Y","1","2015-07-02","50","2016-05-18","371","Y","Y"
"03-023","Site 03","03","52","M","Hispanic","Placebo","PLACEBO","Ongoing","2015-03-25","2015-06-03","71","Y","1","2015-05-25","62","2016-03-15","357","Y","Y"
"03-024","Site 03","03","27","F","White","Screen Failure","SCRNFAIL","Screen Failure","2015-03-16","2015-03-16","1","N","0",,,,,"N","N"
"03-025","Site 03","03","53","F","Black","Treatment B","TRTB","Ongoing","2015-04-29","2016-02-16","294","Y","1","2015-06-24","57","2016-05-05","373","Y","N"
"03-026","Site 03","03","18","M","White","Treatment B","TRTB","Ongoing","2015-10-08","2015-10-28","21","Y","1","2015-12-02","56","2016-10-16","375","Y","Y"
"03-027","Site 03","03","37","F","Other/Mixed","Treatment B","TRTB","Ongoing","2015-05-10","2015-05-25","16","Y","1","2015-07-06","58","2016-05-10","367","Y","Y"
"03-028","Site 03","03","37","F","Other/Mixed","Placebo","PLACEBO","Ongoing","2015-03-08","2015-11-22","260","Y","1","2015-05-02","56","2016-03-06","365","Y","Y"
"03-029","Site 03","03","26","M","White","Placebo","PLACEBO","Ongoing","2015-06-03","2016-02-24","267","Y","1","2015-07-31","59","2016-06-07","371","Y","N"
"03-030","Site 03","03","18","M","Hispanic","Treatment B","TRTB","Ongoing","2015-03-30","2015-12-19","265","Y","1","2015-05-29","61","2016-03-20","357","Y","Y"
"04-001","Site 04","04","21","M","Hispanic","Screen Failure","SCRNFAIL","Screen Failure","2015-02-11","2015-02-11","1","N","0",,,,,"N","N"
"04-002","Site 04","04","54","F","White","Treatment A","TRTA","Completed","2015-06-19","2016-06-09","357","Y","1","2015-08-15","58","2016-06-07","355","Y","Y"
"04-003","Site 04","04","25","M","Other/Mixed","Treatment A","TRTA","Ongoing","2015-11-17","2015-12-30","44","Y","1","2016-01-05","50","2016-11-13","363","Y","Y"
"04-004","Site 04","04","39","M","Black","Placebo","PLACEBO","Ongoing","2015-08-03","2016-01-10","161","Y","1","2015-09-28","57","2016-07-26","359","Y","Y"
"04-005","Site 04","04","42","M","White","Treatment B","TRTB","Completed","2015-08-17","2016-08-20","370","Y","1","2015-10-15","60","2016-08-13","363","Y","Y"
"04-006","Site 04","04","29","M","White","Screen Failure","SCRNFAIL","Screen Failure","2015-10-31","2015-10-31","1","N","0",,,,,"N","N"
"04-007","Site 04","04","24","M","Hispanic","Treatment B","TRTB","Completed","2015-04-15","2016-04-08","360","Y","1","2015-06-07","54","2016-04-15","367","Y","Y"
"04-008","Site 04","04","31","F","Black","Placebo","PLACEBO","Completed","2015-04-10","2016-04-02","359","Y","1","2015-06-02","54","2016-04-18","375","Y","Y"
"04-009","Site 04","04","39","F","Hispanic","Placebo","PLACEBO","Ongoing","2015-01-22","2015-10-27","279","Y","1","2015-03-21","59","2016-01-30","374","Y","Y"
"04-010","Site 04","04","18","F","White","Treatment B","TRTB","Ongoing","2015-12-14","2016-10-04","296","Y","1","2016-02-11","60","2016-12-14","367","N","Y"
"04-011","Site 04","04","48","M","Other/Mixed","Treatment B","TRTB","Completed","2015-10-16","2016-10-20","371","Y","1","2015-12-09","55","2016-10-07","358","Y","Y"
"04-012","Site 04","04","33","M","Black","Treatment B","TRTB","Completed","2015-06-26","2016-06-16","357","Y","1","2015-08-23","59","2016-06-20","361","N","N"
"04-013","Site 04","04","19","M","Hispanic","Treatment A","TRTA","Completed","2015-04-22","2016-04-24","369","Y","1","2015-06-18","58","2016-04-28","373","Y","Y"
"04-014","Site 04","04","36","M","Other/Mixed","Treatment B","TRTB","Ongoing","2015-05-14","2015-10-28","168","Y","1","2015-07-06","54","2016-05-20","373","N","Y"
"04-015","Site 04","04","40","F","Hispanic","Treatment B","TRTB","Ongoing","2015-11-26","2016-06-08","196","Y","1","2016-01-25","61","2016-11-21","362","N","Y"
"04-016","Site 04","04","40","M","Hispanic","Treatment A","TRTA","Ongoing","2015-04-27","2016-03-07","316","Y","1","2015-06-17","52","2016-05-01","371","Y","N"
"04-017","Site 04","04","42","M","Other/Mixed","Screen Failure","SCRNFAIL","Screen Failure","2015-01-26","2015-01-26","1","N","0",,,,,"N","N"
"04-018","Site 04","04","26","F","White","Screen Failure","SCRNFAIL","Screen Failure","2015-06-13","2015-06-13","1","N","0",,,,,"N","N"
"04-019","Site 04","04","55","F","Other/Mixed","Placebo","PLACEBO","Ongoing","2015-01-20","2015-07-03","165","Y","1","2015-03-12","52","2016-01-25","371","Y","Y"
"04-020","Site 04","04","24","F","White","Treatment B","TRTB","Ongoing","2015-09-14","2015-10-12","29","Y","1","2015-11-02","50","2016-09-10","363","Y","Y"
"04-021","Site 04","04","21","M","White","Placebo","PLACEBO","Ongoing","2015-06-20","2015-09-01","74","Y","1","2015-08-20","62","2016-06-22","369","Y","N"
"04-022","Site 04","04","54","F","White","Placebo","PLACEBO","Ongoing","2015-12-26","2016-07-08","196","Y","1","2016-02-20","57","2017-01-01","373","Y","N"
"04-023","Site 04","04","21","M","Hispanic","Treatment A","TRTA","Early Termination","2015-10-04","2016-05-18","228","Y","1","2015-11-25","53","2016-09-24","357","N","Y"
"04-024","Site 04","04","26","M","Other/Mixed","Placebo","PLACEBO","Completed","2015-05-05","2016-04-24","356","Y","1","2015-06-29","56","2016-05-12","374","Y","N"
"04-025","Site 04","04","26","M","Black","Treatment A","TRTA","Ongoing","2015-08-08","2015-09-04","28","Y","1","2015-10-05","59","2016-07-30","358","N","Y"
"04-026","Site 04","04","27","M","Other/Mixed","Placebo","PLACEBO","Ongoing","2015-07-02","2015-07-21","20","Y","1","2015-08-26","56","2016-07-05","370","Y","Y"
"04-027","Site 04","04","28","M","White","Treatment A","TRTA","Ongoing","2015-01-13","2015-09-10","241","Y","1","2015-03-06","53","2016-01-12","365","N","Y"
"04-028","Site 04","04","51","M","Black","Placebo","PLACEBO","Ongoing","2015-01-23","2015-12-13","325","Y","1","2015-03-20","57","2016-01-31","374","Y","Y"
"04-029","Site 04","04","49","M","Hispanic","Treatment A","TRTA","Ongoing","2015-05-12","2015-12-15","218","Y","1","2015-07-11","61","2016-05-17","372","Y","Y"
"04-030","Site 04","04","31","F","Hispanic","Treatment B","TRTB","Early Termination","2015-04-25","2015-11-25","215","Y","1","2015-06-25","62","2016-04-15","357","Y","Y"
"05-001","Site 05","05","48","F","Black","Treatment A","TRTA","Early Termination","2015-04-11","2015-10-12","185","Y","1","2015-06-12","63","2016-04-16","372","Y","Y"
"05-002","Site 05","05","24","M","Black","Treatment B","TRTB","Ongoing","2015-10-26","2016-07-22","271","Y","1","2015-12-13","49","2016-10-28","369","N","Y"
"05-003","Site 05","05","42","M","Black","Treatment B","TRTB","Completed","2015-09-26","2016-09-25","366","Y","1","2015-11-18","54","2016-09-20","361","Y","N"
"05-004","Site 05","05","47","M","White","Placebo","PLACEBO","Ongoing","2015-10-29","2015-11-29","32","Y","1","2015-12-22","55","2016-10-26","364","Y","N"
"05-005","Site 05","05","20","M","Other/Mixed","Treatment B","TRTB","Early Termination","2015-06-06","2015-11-24","172","Y","1","2015-07-30","55","2016-06-14","375","Y","Y"
"05-006","Site 05","05","21","M","Hispanic","Screen Failure","SCRNFAIL","Screen Failure","2015-10-15","2015-10-15","1","N","0",,,,,"N","N"
"05-007","Site 05","05","43","M","White","Treatment B","TRTB","Ongoing","2015-07-07","2015-08-17","42","Y","1","2015-08-31","56","2016-07-15","375","Y","Y"
"05-008","Site 05","05","26","F","Hispanic","Treatment B","TRTB","Ongoing","2015-10-12","2016-10-04","359","Y","1","2015-11-29","49","2016-10-19","374","Y","Y"
"05-009","Site 05","05","42","F","Hispanic","Placebo","PLACEBO","Completed","2015-12-16","2016-12-24","375","Y","1","2016-02-06","53","2016-12-13","364","Y","Y"
"05-010","Site 05","05","43","F","White","Treatment B","TRTB","Completed","2015-02-06","2016-02-06","366","Y","1","2015-04-01","55","2016-02-15","375","Y","Y"
"05-011","Site 05","05","49","M","Other/Mixed","Treatment A","TRTA","Ongoing","2015-02-04","2015-06-25","142","Y","1","2015-04-01","57","2016-02-04","366","Y","Y"
"05-012","Site 05","05","45","M","Black","Treatment A","TRTA","Completed","2015-04-18","2016-04-26","375","Y","1","2015-06-11","55","2016-04-16","365","Y","Y"
"05-013","Site 05","05","39","M","Hispanic","Treatment A","TRTA","Completed","2015-10-22","2016-10-22","367","Y","1","2015-12-21","61","2016-10-18","363","Y","Y"
"05-014","Site 05","05","32","M","Other/Mixed","Treatment A","TRTA","Ongoing","2015-07-01","2016-03-14","258","Y","1","2015-08-30","61","2016-07-07","373","Y","Y"
"05-015","Site 05","05","38","F","Hispanic","Treatment B","TRTB","Ongoing","2015-01-11","2015-11-14","308","Y","1","2015-03-11","60","2016-01-05","360","Y","Y"
"05-016","Site 05","05","42","F","Other/Mixed","Treatment A","TRTA","Ongoing","2015-06-15","2015-07-31","47","Y","1","2015-08-10","57","2016-06-14","366","Y","Y"
"05-017","Site 05","05","40","M","Hispanic","Placebo","PLACEBO","Ongoing","2015-07-03","2016-05-10","313","Y","1","2015-08-27","56","2016-06-26","360","Y","Y"
"05-018","Site 05","05","36","F","White","Treatment A","TRTA","Ongoing","2015-12-14","2016-09-12","274","Y","1","2016-02-09","58","2016-12-04","357","Y","N"
"05-019","Site 05","05","42","F","Black","Placebo","PLACEBO","Ongoing","2015-05-13","2016-03-11","304","Y","1","2015-07-14","63","2016-05-05","359","Y","N"
"05-020","Site 05","05","32","M","Other/Mixed","Treatment A","TRTA","Ongoing","2015-04-21","2015-09-22","155","Y","1","2015-06-13","54","2016-04-15","361","Y","Y"
"05-021","Site 05","05","46","M","Other/Mixed","Treatment A","TRTA","Completed","2015-01-20","2016-01-14","360","Y","1","2015-03-18","58","2016-01-21","367","Y","Y"
"05-022","Site 05","05","29","F","Black","Placebo","PLACEBO","Ongoing","2015-01-10","2015-08-16","219","Y","1","2015-03-05","55","2016-01-15","371","N","N"
"05-023","Site 05","05","49","M","Hispanic","Treatment A","TRTA","Ongoing","2015-08-15","2016-05-10","270","Y","1","2015-10-10","57","2016-08-04","356","Y","N"
"05-024","Site 05","05","54","M","White","Treatment A","TRTA","Ongoing","2015-11-17","2016-04-15","151","Y","1","2016-01-07","52","2016-11-16","366","Y","Y"
"05-025","Site 05","05","54","M","White","Treatment A","TRTA","Ongoing","2015-02-28","2015-06-13","106","Y","1","2015-04-23","55","2016-02-20","358","Y","Y"
"05-026","Site 05","05","32","M","Black","Placebo","PLACEBO","Ongoing","2015-01-26","2015-10-20","268","Y","1","2015-03-22","56","2016-02-03","374","Y","N"
"05-027","Site 05","05","28","F","Hispanic","Treatment A","TRTA","Ongoing","2015-05-28","2016-04-29","338","Y","1","2015-07-18","52","2016-05-27","366","Y","Y"
"05-028","Site 05","05","42","M","Other/Mixed","Treatment A","TRTA","Ongoing","2015-12-01","2016-09-28","303","Y","1","2016-01-31","62","2016-12-03","369","Y","N"
"05-029","Site 05","05","35","M","White","Placebo","PLACEBO","Ongoing","2015-10-02","2015-12-31","91","Y","1","2015-11-24","54","2016-10-09","374","Y","Y"
"05-030","Site 05","05","23","F","Hispanic","Treatment A","TRTA","Ongoing","2015-11-13","2016-06-06","207","Y","1","2016-01-02","51","2016-11-01","355","Y","Y"
