"USUBJID","SITE","SITEID","AGE","SEX","RACE","ARM","ARMCD","SBJTSTAT","RFSTDTC","RFENDTC","RFENDY","SAFFL","SAFFN","RANDDT","RANDDY","COMPLDT","COMPLDY","ANYAEFL","ANYCMFL","AVISIT","AVISITN","ADT","ADY","PARAMCAT","PARAM","AVAL","ANRLO","ANRHI"
"01-001","Clinical Site 01","01","30","F","Other/Mixed","Placebo","PLACEBO","Early Termination","2015-05-21","2015-05-26","6","Y","1","2015-07-17","58","2016-05-09","355","Y","Y","Screening","0","2015-05-21","1","Vital Signs","Diastolic Blood Pressure (mmHg)","67.9467098606831","60","80"
"01-001","Clinical Site 01","01","30","F","Other/Mixed","Placebo","PLACEBO","Early Termination","2015-05-21","2015-05-26","6","Y","1","2015-07-17","58","2016-05-09","355","Y","Y","Screening","0","2015-05-21","1","Vital Signs","Heart Rate (beats/minute)","70.8427632226944","50","80"
"01-001","Clinical Site 01","01","30","F","Other/Mixed","Placebo","PLACEBO","Early Termination","2015-05-21","2015-05-26","6","Y","1","2015-07-17","58","2016-05-09","355","Y","Y","Screening","0","2015-05-21","1","Vital Signs","Respiratory Rate (breaths/minute)","15.4137662310258","16","20"
"01-001","Clinical Site 01","01","30","F","Other/Mixed","Placebo","PLACEBO","Early Termination","2015-05-21","2015-05-26","6","Y","1","2015-07-17","58","2016-05-09","355","Y","Y","Screening","0","2015-05-21","1","Vital Signs","Systolic Blood Pressure (mmHg)","77.3492126417281","90","120"
"01-001","Clinical Site 01","01","30","F","Other/Mixed","Placebo","PLACEBO","Early Termination","2015-05-21","2015-05-26","6","Y","1","2015-07-17","58","2016-05-09","355","Y","Y","Screening","0","2015-05-21","1","Vital Signs","Temperature (°C)","36.8491787281381","36.6","37"
"01-001","Clinical Site 01","01","30","F","Other/Mixed","Placebo","PLACEBO","Early Termination","2015-05-21","2015-05-26","6","Y","1","2015-07-17","58","2016-05-09","355","Y","Y","Early Termination","6.9","2015-05-26","6","Vital Signs","Diastolic Blood Pressure (mmHg)","57.3831459384925","60","80"
"01-001","Clinical Site 01","01","30","F","Other/Mixed","Placebo","PLACEBO","Early Termination","2015-05-21","2015-05-26","6","Y","1","2015-07-17","58","2016-05-09","355","Y","Y","Early Termination","6.9","2015-05-26","6","Vital Signs","Heart Rate (beats/minute)","95.9873858220087","50","80"
"01-001","Clinical Site 01","01","30","F","Other/Mixed","Placebo","PLACEBO","Early Termination","2015-05-21","2015-05-26","6","Y","1","2015-07-17","58","2016-05-09","355","Y","Y","Early Termination","6.9","2015-05-26","6","Vital Signs","Respiratory Rate (breaths/minute)","18.0364284621797","16","20"
"01-001","Clinical Site 01","01","30","F","Other/Mixed","Placebo","PLACEBO","Early Termination","2015-05-21","2015-05-26","6","Y","1","2015-07-17","58","2016-05-09","355","Y","Y","Early Termination","6.9","2015-05-26","6","Vital Signs","Systolic Blood Pressure (mmHg)","104.916517981808","90","120"
"01-001","Clinical Site 01","01","30","F","Other/Mixed","Placebo","PLACEBO","Early Termination","2015-05-21","2015-05-26","6","Y","1","2015-07-17","58","2016-05-09","355","Y","Y","Early Termination","6.9","2015-05-26","6","Vital Signs","Temperature (°C)","36.5476914221918","36.6","37"
"01-002","Clinical Site 01","01","24","F","Black","Treatment A","TRTA","Ongoing","2015-05-30","2015-11-09","164","Y","1","2015-07-29","61","2016-05-29","366","Y","N","Screening","0","2015-05-30","1","Vital Signs","Diastolic Blood Pressure (mmHg)","78.0360943581664","60","80"
"01-002","Clinical Site 01","01","24","F","Black","Treatment A","TRTA","Ongoing","2015-05-30","2015-11-09","164","Y","1","2015-07-29","61","2016-05-29","366","Y","N","Screening","0","2015-05-30","1","Vital Signs","Heart Rate (beats/minute)","54.1629238105171","50","80"
"01-002","Clinical Site 01","01","24","F","Black","Treatment A","TRTA","Ongoing","2015-05-30","2015-11-09","164","Y","1","2015-07-29","61","2016-05-29","366","Y","N","Screening","0","2015-05-30","1","Vital Signs","Respiratory Rate (breaths/minute)","14.4784335981466","16","20"
"01-002","Clinical Site 01","01","24","F","Black","Treatment A","TRTA","Ongoing","2015-05-30","2015-11-09","164","Y","1","2015-07-29","61","2016-05-29","366","Y","N","Screening","0","2015-05-30","1","Vital Signs","Systolic Blood Pressure (mmHg)","79.4293457783901","90","120"
"01-002","Clinical Site 01","01","24","F","Black","Treatment A","TRTA","Ongoing","2015-05-30","2015-11-09","164","Y","1","2015-07-29","61","2016-05-29","366","Y","N","Screening","0","2015-05-30","1","Vital Signs","Temperature (°C)","36.9804430500838","36.6","37"
"01-002","Clinical Site 01","01","24","F","Black","Treatment A","TRTA","Ongoing","2015-05-30","2015-11-09","164","Y","1","2015-07-29","61","2016-05-29","366","Y","N","Visit 1","1","2015-07-29","61","Vital Signs","Diastolic Blood Pressure (mmHg)","","60","80"
"01-002","Clinical Site 01","01","24","F","Black","Treatment A","TRTA","Ongoing","2015-05-30","2015-11-09","164","Y","1","2015-07-29","61","2016-05-29","366","Y","N","Visit 1","1","2015-07-29","61","Vital Signs","Heart Rate (beats/minute)","53.9902888804933","50","80"
"01-002","Clinical Site 01","01","24","F","Black","Treatment A","TRTA","Ongoing","2015-05-30","2015-11-09","164","Y","1","2015-07-29","61","2016-05-29","366","Y","N","Visit 1","1","2015-07-29","61","Vital Signs","Respiratory Rate (breaths/minute)","19.7354221146393","16","20"
"01-002","Clinical Site 01","01","24","F","Black","Treatment A","TRTA","Ongoing","2015-05-30","2015-11-09","164","Y","1","2015-07-29","61","2016-05-29","366","Y","N","Visit 1","1","2015-07-29","61","Vital Signs","Systolic Blood Pressure (mmHg)","93.5115591048986","90","120"
"01-002","Clinical Site 01","01","24","F","Black","Treatment A","TRTA","Ongoing","2015-05-30","2015-11-09","164","Y","1","2015-07-29","61","2016-05-29","366","Y","N","Visit 1","1","2015-07-29","61","Vital Signs","Temperature (°C)","36.5785360543794","36.6","37"
"01-002","Clinical Site 01","01","24","F","Black","Treatment A","TRTA","Ongoing","2015-05-30","2015-11-09","164","Y","1","2015-07-29","61","2016-05-29","366","Y","N","Visit 2","2","2015-09-17","111","Vital Signs","Diastolic Blood Pressure (mmHg)","89.3429816297352","60","80"
"01-002","Clinical Site 01","01","24","F","Black","Treatment A","TRTA","Ongoing","2015-05-30","2015-11-09","164","Y","1","2015-07-29","61","2016-05-29","366","Y","N","Visit 2","2","2015-09-17","111","Vital Signs","Heart Rate (beats/minute)","60.7785043839416","50","80"
"01-002","Clinical Site 01","01","24","F","Black","Treatment A","TRTA","Ongoing","2015-05-30","2015-11-09","164","Y","1","2015-07-29","61","2016-05-29","366","Y","N","Visit 2","2","2015-09-17","111","Vital Signs","Respiratory Rate (breaths/minute)","19.3924313238689","16","20"
"01-002","Clinical Site 01","01","24","F","Black","Treatment A","TRTA","Ongoing","2015-05-30","2015-11-09","164","Y","1","2015-07-29","61","2016-05-29","366","Y","N","Visit 2","2","2015-09-17","111","Vital Signs","Systolic Blood Pressure (mmHg)","131.073370032525","90","120"
"01-002","Clinical Site 01","01","24","F","Black","Treatment A","TRTA","Ongoing","2015-05-30","2015-11-09","164","Y","1","2015-07-29","61","2016-05-29","366","Y","N","Visit 2","2","2015-09-17","111","Vital Signs","Temperature (°C)","36.3728612121384","36.6","37"
"01-003","Clinical Site 01","01","43","F","Hispanic","Placebo","PLACEBO","Ongoing","2015-08-13","2016-02-23","195","Y","1","2015-10-04","53","2016-08-18","372","Y","Y","Screening","0","2015-08-13","1","Vital Signs","Diastolic Blood Pressure (mmHg)","67.2047095641558","60","80"
"01-003","Clinical Site 01","01","43","F","Hispanic","Placebo","PLACEBO","Ongoing","2015-08-13","2016-02-23","195","Y","1","2015-10-04","53","2016-08-18","372","Y","Y","Screening","0","2015-08-13","1","Vital Signs","Heart Rate (beats/minute)","54.8341857697348","50","80"
"01-003","Clinical Site 01","01","43","F","Hispanic","Placebo","PLACEBO","Ongoing","2015-08-13","2016-02-23","195","Y","1","2015-10-04","53","2016-08-18","372","Y","Y","Screening","0","2015-08-13","1","Vital Signs","Respiratory Rate (breaths/minute)","19.1945828935216","16","20"
"01-003","Clinical Site 01","01","43","F","Hispanic","Placebo","PLACEBO","Ongoing","2015-08-13","2016-02-23","195","Y","1","2015-10-04","53","2016-08-18","372","Y","Y","Screening","0","2015-08-13","1","Vital Signs","Systolic Blood Pressure (mmHg)","111.769972094393","90","120"
"01-003","Clinical Site 01","01","43","F","Hispanic","Placebo","PLACEBO","Ongoing","2015-08-13","2016-02-23","195","Y","1","2015-10-04","53","2016-08-18","372","Y","Y","Screening","0","2015-08-13","1","Vital Signs","Temperature (°C)","36.6761462111935","36.6","37"
"01-003","Clinical Site 01","01","43","F","Hispanic","Placebo","PLACEBO","Ongoing","2015-08-13","2016-02-23","195","Y","1","2015-10-04","53","2016-08-18","372","Y","Y","Visit 1","1","2015-10-04","53","Vital Signs","Diastolic Blood Pressure (mmHg)","","60","80"
"01-003","Clinical Site 01","01","43","F","Hispanic","Placebo","PLACEBO","Ongoing","2015-08-13","2016-02-23","195","Y","1","2015-10-04","53","2016-08-18","372","Y","Y","Visit 1","1","2015-10-04","53","Vital Signs","Heart Rate (beats/minute)","79.6812724160716","50","80"
"01-003","Clinical Site 01","01","43","F","Hispanic","Placebo","PLACEBO","Ongoing","2015-08-13","2016-02-23","195","Y","1","2015-10-04","53","2016-08-18","372","Y","Y","Visit 1","1","2015-10-04","53","Vital Signs","Respiratory Rate (breaths/minute)","19.252196751089","16","20"
"01-003","Clinical Site 01","01","43","F","Hispanic","Placebo","PLACEBO","Ongoing","2015-08-13","2016-02-23","195","Y","1","2015-10-04","53","2016-08-18","372","Y","Y","Visit 1","1","2015-10-04","53","Vital Signs","Systolic Blood Pressure (mmHg)","113.471606409852","90","120"
"01-003","Clinical Site 01","01","43","F","Hispanic","Placebo","PLACEBO","Ongoing","2015-08-13","2016-02-23","195","Y","1","2015-10-04","53","2016-08-18","372","Y","Y","Visit 1","1","2015-10-04","53","Vital Signs","Temperature (°C)","36.6681106917233","36.6","37"
"01-003","Clinical Site 01","01","43","F","Hispanic","Placebo","PLACEBO","Ongoing","2015-08-13","2016-02-23","195","Y","1","2015-10-04","53","2016-08-18","372","Y","Y","Visit 2","2","2015-12-08","118","Vital Signs","Diastolic Blood Pressure (mmHg)","84.3323498593591","60","80"
"01-003","Clinical Site 01","01","43","F","Hispanic","Placebo","PLACEBO","Ongoing","2015-08-13","2016-02-23","195","Y","1","2015-10-04","53","2016-08-18","372","Y","Y","Visit 2","2","2015-12-08","118","Vital Signs","Heart Rate (beats/minute)","70.6216276396264","50","80"
"01-003","Clinical Site 01","01","43","F","Hispanic","Placebo","PLACEBO","Ongoing","2015-08-13","2016-02-23","195","Y","1","2015-10-04","53","2016-08-18","372","Y","Y","Visit 2","2","2015-12-08","118","Vital Signs","Respiratory Rate (breaths/minute)","16.0923807829189","16","20"
"01-003","Clinical Site 01","01","43","F","Hispanic","Placebo","PLACEBO","Ongoing","2015-08-13","2016-02-23","195","Y","1","2015-10-04","53","2016-08-18","372","Y","Y","Visit 2","2","2015-12-08","118","Vital Signs","Systolic Blood Pressure (mmHg)","108.230781054268","90","120"
"01-003","Clinical Site 01","01","43","F","Hispanic","Placebo","PLACEBO","Ongoing","2015-08-13","2016-02-23","195","Y","1","2015-10-04","53","2016-08-18","372","Y","Y","Visit 2","2","2015-12-08","118","Vital Signs","Temperature (°C)","36.7887893923423","36.6","37"
"01-004","Clinical Site 01","01","42","F","Hispanic","Placebo","PLACEBO","Ongoing","2015-01-12","2015-04-26","105","Y","1","2015-03-02","50","2016-01-05","359","N","Y","Screening","0","2015-01-12","1","Vital Signs","Diastolic Blood Pressure (mmHg)","66.0526405581847","60","80"
"01-004","Clinical Site 01","01","42","F","Hispanic","Placebo","PLACEBO","Ongoing","2015-01-12","2015-04-26","105","Y","1","2015-03-02","50","2016-01-05","359","N","Y","Screening","0","2015-01-12","1","Vital Signs","Heart Rate (beats/minute)","50.9095322418809","50","80"
"01-004","Clinical Site 01","01","42","F","Hispanic","Placebo","PLACEBO","Ongoing","2015-01-12","2015-04-26","105","Y","1","2015-03-02","50","2016-01-05","359","N","Y","Screening","0","2015-01-12","1","Vital Signs","Respiratory Rate (breaths/minute)","18.4397444597733","16","20"
"01-004","Clinical Site 01","01","42","F","Hispanic","Placebo","PLACEBO","Ongoing","2015-01-12","2015-04-26","105","Y","1","2015-03-02","50","2016-01-05","359","N","Y","Screening","0","2015-01-12","1","Vital Signs","Systolic Blood Pressure (mmHg)","125.678868871029","90","120"
"01-004","Clinical Site 01","01","42","F","Hispanic","Placebo","PLACEBO","Ongoing","2015-01-12","2015-04-26","105","Y","1","2015-03-02","50","2016-01-05","359","N","Y","Screening","0","2015-01-12","1","Vital Signs","Temperature (°C)","36.9109162121549","36.6","37"
"01-004","Clinical Site 01","01","42","F","Hispanic","Placebo","PLACEBO","Ongoing","2015-01-12","2015-04-26","105","Y","1","2015-03-02","50","2016-01-05","359","N","Y","Visit 1","1","2015-03-02","50","Vital Signs","Diastolic Blood Pressure (mmHg)","","60","80"
"01-004","Clinical Site 01","01","42","F","Hispanic","Placebo","PLACEBO","Ongoing","2015-01-12","2015-04-26","105","Y","1","2015-03-02","50","2016-01-05","359","N","Y","Visit 1","1","2015-03-02","50","Vital Signs","Heart Rate (beats/minute)","44.6658207446181","50","80"
"01-004","Clinical Site 01","01","42","F","Hispanic","Placebo","PLACEBO","Ongoing","2015-01-12","2015-04-26","105","Y","1","2015-03-02","50","2016-01-05","359","N","Y","Visit 1","1","2015-03-02","50","Vital Signs","Respiratory Rate (breaths/minute)","19.5728713852837","16","20"
"01-004","Clinical Site 01","01","42","F","Hispanic","Placebo","PLACEBO","Ongoing","2015-01-12","2015-04-26","105","Y","1","2015-03-02","50","2016-01-05","359","N","Y","Visit 1","1","2015-03-02","50","Vital Signs","Systolic Blood Pressure (mmHg)","","90","120"
"01-004","Clinical Site 01","01","42","F","Hispanic","Placebo","PLACEBO","Ongoing","2015-01-12","2015-04-26","105","Y","1","2015-03-02","50","2016-01-05","359","N","Y","Visit 1","1","2015-03-02","50","Vital Signs","Temperature (°C)","36.8150150923473","36.6","37"
"01-005","Clinical Site 01","01","51","M","White","Treatment B","TRTB","Ongoing","2015-11-11","2016-03-18","129","Y","1","2016-01-01","52","2016-11-18","374","Y","N","Screening","0","2015-11-11","1","Vital Signs","Diastolic Blood Pressure (mmHg)","83.0602454337036","60","80"
"01-005","Clinical Site 01","01","51","M","White","Treatment B","TRTB","Ongoing","2015-11-11","2016-03-18","129","Y","1","2016-01-01","52","2016-11-18","374","Y","N","Screening","0","2015-11-11","1","Vital Signs","Heart Rate (beats/minute)","43.2799768722904","50","80"
"01-005","Clinical Site 01","01","51","M","White","Treatment B","TRTB","Ongoing","2015-11-11","2016-03-18","129","Y","1","2016-01-01","52","2016-11-18","374","Y","N","Screening","0","2015-11-11","1","Vital Signs","Respiratory Rate (breaths/minute)","14.4981692677734","16","20"
"01-005","Clinical Site 01","01","51","M","White","Treatment B","TRTB","Ongoing","2015-11-11","2016-03-18","129","Y","1","2016-01-01","52","2016-11-18","374","Y","N","Screening","0","2015-11-11","1","Vital Signs","Systolic Blood Pressure (mmHg)","101.371529770937","90","120"
"01-005","Clinical Site 01","01","51","M","White","Treatment B","TRTB","Ongoing","2015-11-11","2016-03-18","129","Y","1","2016-01-01","52","2016-11-18","374","Y","N","Screening","0","2015-11-11","1","Vital Signs","Temperature (°C)","36.3969184652103","36.6","37"
"01-005","Clinical Site 01","01","51","M","White","Treatment B","TRTB","Ongoing","2015-11-11","2016-03-18","129","Y","1","2016-01-01","52","2016-11-18","374","Y","N","Visit 1","1","2016-01-01","52","Vital Signs","Diastolic Blood Pressure (mmHg)","","60","80"
"01-005","Clinical Site 01","01","51","M","White","Treatment B","TRTB","Ongoing","2015-11-11","2016-03-18","129","Y","1","2016-01-01","52","2016-11-18","374","Y","N","Visit 1","1","2016-01-01","52","Vital Signs","Heart Rate (beats/minute)","65.2188528165698","50","80"
"01-005","Clinical Site 01","01","51","M","White","Treatment B","TRTB","Ongoing","2015-11-11","2016-03-18","129","Y","1","2016-01-01","52","2016-11-18","374","Y","N","Visit 1","1","2016-01-01","52","Vital Signs","Respiratory Rate (breaths/minute)","17.6459576574879","16","20"
"01-005","Clinical Site 01","01","51","M","White","Treatment B","TRTB","Ongoing","2015-11-11","2016-03-18","129","Y","1","2016-01-01","52","2016-11-18","374","Y","N","Visit 1","1","2016-01-01","52","Vital Signs","Systolic Blood Pressure (mmHg)","106.782130424396","90","120"
"01-005","Clinical Site 01","01","51","M","White","Treatment B","TRTB","Ongoing","2015-11-11","2016-03-18","129","Y","1","2016-01-01","52","2016-11-18","374","Y","N","Visit 1","1","2016-01-01","52","Vital Signs","Temperature (°C)","37.0588454724314","36.6","37"
"01-009","Clinical Site 01","01","44","M","White","Treatment B","TRTB","Ongoing","2015-11-25","2016-05-07","165","Y","1","2016-01-24","61","2016-11-29","371","Y","Y","Screening","0","2015-11-25","1","Vital Signs","Diastolic Blood Pressure (mmHg)","49.4837202387483","60","80"
"01-009","Clinical Site 01","01","44","M","White","Treatment B","TRTB","Ongoing","2015-11-25","2016-05-07","165","Y","1","2016-01-24","61","2016-11-29","371","Y","Y","Screening","0","2015-11-25","1","Vital Signs","Heart Rate (beats/minute)","82.8823203845271","50","80"
"01-009","Clinical Site 01","01","44","M","White","Treatment B","TRTB","Ongoing","2015-11-25","2016-05-07","165","Y","1","2016-01-24","61","2016-11-29","371","Y","Y","Screening","0","2015-11-25","1","Vital Signs","Respiratory Rate (breaths/minute)","18.573126358674","16","20"
"01-009","Clinical Site 01","01","44","M","White","Treatment B","TRTB","Ongoing","2015-11-25","2016-05-07","165","Y","1","2016-01-24","61","2016-11-29","371","Y","Y","Screening","0","2015-11-25","1","Vital Signs","Systolic Blood Pressure (mmHg)","65.6589942764382","90","120"
"01-009","Clinical Site 01","01","44","M","White","Treatment B","TRTB","Ongoing","2015-11-25","2016-05-07","165","Y","1","2016-01-24","61","2016-11-29","371","Y","Y","Screening","0","2015-11-25","1","Vital Signs","Temperature (°C)","36.8956165942728","36.6","37"
"01-009","Clinical Site 01","01","44","M","White","Treatment B","TRTB","Ongoing","2015-11-25","2016-05-07","165","Y","1","2016-01-24","61","2016-11-29","371","Y","Y","Visit 1","1","2016-01-24","61","Vital Signs","Diastolic Blood Pressure (mmHg)","","60","80"
"01-009","Clinical Site 01","01","44","M","White","Treatment B","TRTB","Ongoing","2015-11-25","2016-05-07","165","Y","1","2016-01-24","61","2016-11-29","371","Y","Y","Visit 1","1","2016-01-24","61","Vital Signs","Heart Rate (beats/minute)","62.1359084460055","50","80"
"01-009","Clinical Site 01","01","44","M","White","Treatment B","TRTB","Ongoing","2015-11-25","2016-05-07","165","Y","1","2016-01-24","61","2016-11-29","371","Y","Y","Visit 1","1","2016-01-24","61","Vital Signs","Respiratory Rate (breaths/minute)","18.8915688973118","16","20"
"01-009","Clinical Site 01","01","44","M","White","Treatment B","TRTB","Ongoing","2015-11-25","2016-05-07","165","Y","1","2016-01-24","61","2016-11-29","371","Y","Y","Visit 1","1","2016-01-24","61","Vital Signs","Systolic Blood Pressure (mmHg)","108.425236750854","90","120"
"01-009","Clinical Site 01","01","44","M","White","Treatment B","TRTB","Ongoing","2015-11-25","2016-05-07","165","Y","1","2016-01-24","61","2016-11-29","371","Y","Y","Visit 1","1","2016-01-24","61","Vital Signs","Temperature (°C)","36.5572016807321","36.6","37"
"01-009","Clinical Site 01","01","44","M","White","Treatment B","TRTB","Ongoing","2015-11-25","2016-05-07","165","Y","1","2016-01-24","61","2016-11-29","371","Y","Y","Visit 2","2","2016-03-16","113","Vital Signs","Diastolic Blood Pressure (mmHg)","77.4940484619128","60","80"
"01-009","Clinical Site 01","01","44","M","White","Treatment B","TRTB","Ongoing","2015-11-25","2016-05-07","165","Y","1","2016-01-24","61","2016-11-29","371","Y","Y","Visit 2","2","2016-03-16","113","Vital Signs","Heart Rate (beats/minute)","64.5359790565978","50","80"
"01-009","Clinical Site 01","01","44","M","White","Treatment B","TRTB","Ongoing","2015-11-25","2016-05-07","165","Y","1","2016-01-24","61","2016-11-29","371","Y","Y","Visit 2","2","2016-03-16","113","Vital Signs","Respiratory Rate (breaths/minute)","19.5823522737415","16","20"
"01-009","Clinical Site 01","01","44","M","White","Treatment B","TRTB","Ongoing","2015-11-25","2016-05-07","165","Y","1","2016-01-24","61","2016-11-29","371","Y","Y","Visit 2","2","2016-03-16","113","Vital Signs","Systolic Blood Pressure (mmHg)","95.797649841334","90","120"
"01-009","Clinical Site 01","01","44","M","White","Treatment B","TRTB","Ongoing","2015-11-25","2016-05-07","165","Y","1","2016-01-24","61","2016-11-29","371","Y","Y","Visit 2","2","2016-03-16","113","Vital Signs","Temperature (°C)","36.8592835700001","36.6","37"
"01-010","Clinical Site 01","01","35","F","Black","Treatment B","TRTB","Ongoing","2015-01-06","2015-05-04","119","Y","1","2015-02-23","49","2016-01-10","370","N","N","Screening","0","2015-01-06","1","Vital Signs","Diastolic Blood Pressure (mmHg)","69.5963871454794","60","80"
"01-010","Clinical Site 01","01","35","F","Black","Treatment B","TRTB","Ongoing","2015-01-06","2015-05-04","119","Y","1","2015-02-23","49","2016-01-10","370","N","N","Screening","0","2015-01-06","1","Vital Signs","Heart Rate (beats/minute)","67.5434295599935","50","80"
"01-010","Clinical Site 01","01","35","F","Black","Treatment B","TRTB","Ongoing","2015-01-06","2015-05-04","119","Y","1","2015-02-23","49","2016-01-10","370","N","N","Screening","0","2015-01-06","1","Vital Signs","Respiratory Rate (breaths/minute)","15.04844150142","16","20"
"01-010","Clinical Site 01","01","35","F","Black","Treatment B","TRTB","Ongoing","2015-01-06","2015-05-04","119","Y","1","2015-02-23","49","2016-01-10","370","N","N","Screening","0","2015-01-06","1","Vital Signs","Systolic Blood Pressure (mmHg)","109.491050934977","90","120"
"01-010","Clinical Site 01","01","35","F","Black","Treatment B","TRTB","Ongoing","2015-01-06","2015-05-04","119","Y","1","2015-02-23","49","2016-01-10","370","N","N","Screening","0","2015-01-06","1","Vital Signs","Temperature (°C)","36.9266205758052","36.6","37"
"01-010","Clinical Site 01","01","35","F","Black","Treatment B","TRTB","Ongoing","2015-01-06","2015-05-04","119","Y","1","2015-02-23","49","2016-01-10","370","N","N","Visit 1","1","2015-02-23","49","Vital Signs","Diastolic Blood Pressure (mmHg)","","60","80"
"01-010","Clinical Site 01","01","35","F","Black","Treatment B","TRTB","Ongoing","2015-01-06","2015-05-04","119","Y","1","2015-02-23","49","2016-01-10","370","N","N","Visit 1","1","2015-02-23","49","Vital Signs","Heart Rate (beats/minute)","61.884714848784","50","80"
"01-010","Clinical Site 01","01","35","F","Black","Treatment B","TRTB","Ongoing","2015-01-06","2015-05-04","119","Y","1","2015-02-23","49","2016-01-10","370","N","N","Visit 1","1","2015-02-23","49","Vital Signs","Respiratory Rate (breaths/minute)","19.0810499588012","16","20"
"01-010","Clinical Site 01","01","35","F","Black","Treatment B","TRTB","Ongoing","2015-01-06","2015-05-04","119","Y","1","2015-02-23","49","2016-01-10","370","N","N","Visit 1","1","2015-02-23","49","Vital Signs","Systolic Blood Pressure (mmHg)","117.12164034998","90","120"
"01-010","Clinical Site 01","01","35","F","Black","Treatment B","TRTB","Ongoing","2015-01-06","2015-05-04","119","Y","1","2015-02-23","49","2016-01-10","370","N","N","Visit 1","1","2015-02-23","49","Vital Signs","Temperature (°C)","36.9845852235511","36.6","37"
"01-011","Clinical Site 01","01","33","F","Other/Mixed","Treatment A","TRTA","Ongoing","2015-10-04","2016-01-23","112","Y","1","2015-11-30","58","2016-09-26","359","Y","N","Screening","0","2015-10-04","1","Vital Signs","Diastolic Blood Pressure (mmHg)","62.6422303623497","60","80"
"01-011","Clinical Site 01","01","33","F","Other/Mixed","Treatment A","TRTA","Ongoing","2015-10-04","2016-01-23","112","Y","1","2015-11-30","58","2016-09-26","359","Y","N","Screening","0","2015-10-04","1","Vital Signs","Heart Rate (beats/minute)","77.3806628170022","50","80"
"01-011","Clinical Site 01","01","33","F","Other/Mixed","Treatment A","TRTA","Ongoing","2015-10-04","2016-01-23","112","Y","1","2015-11-30","58","2016-09-26","359","Y","N","Screening","0","2015-10-04","1","Vital Signs","Respiratory Rate (breaths/minute)","","16","20"
"01-011","Clinical Site 01","01","33","F","Other/Mixed","Treatment A","TRTA","Ongoing","2015-10-04","2016-01-23","112","Y","1","2015-11-30","58","2016-09-26","359","Y","N","Screening","0","2015-10-04","1","Vital Signs","Systolic Blood Pressure (mmHg)","105.26420550843","90","120"
"01-011","Clinical Site 01","01","33","F","Other/Mixed","Treatment A","TRTA","Ongoing","2015-10-04","2016-01-23","112","Y","1","2015-11-30","58","2016-09-26","359","Y","N","Screening","0","2015-10-04","1","Vital Signs","Temperature (°C)","37.1112842905535","36.6","37"
"01-011","Clinical Site 01","01","33","F","Other/Mixed","Treatment A","TRTA","Ongoing","2015-10-04","2016-01-23","112","Y","1","2015-11-30","58","2016-09-26","359","Y","N","Visit 1","1","2015-11-30","58","Vital Signs","Diastolic Blood Pressure (mmHg)","","60","80"
"01-011","Clinical Site 01","01","33","F","Other/Mixed","Treatment A","TRTA","Ongoing","2015-10-04","2016-01-23","112","Y","1","2015-11-30","58","2016-09-26","359","Y","N","Visit 1","1","2015-11-30","58","Vital Signs","Heart Rate (beats/minute)","46.8341139648569","50","80"
"01-011","Clinical Site 01","01","33","F","Other/Mixed","Treatment A","TRTA","Ongoing","2015-10-04","2016-01-23","112","Y","1","2015-11-30","58","2016-09-26","359","Y","N","Visit 1","1","2015-11-30","58","Vital Signs","Respiratory Rate (breaths/minute)","21.2311908132143","16","20"
"01-011","Clinical Site 01","01","33","F","Other/Mixed","Treatment A","TRTA","Ongoing","2015-10-04","2016-01-23","112","Y","1","2015-11-30","58","2016-09-26","359","Y","N","Visit 1","1","2015-11-30","58","Vital Signs","Systolic Blood Pressure (mmHg)","116.012201924906","90","120"
"01-011","Clinical Site 01","01","33","F","Other/Mixed","Treatment A","TRTA","Ongoing","2015-10-04","2016-01-23","112","Y","1","2015-11-30","58","2016-09-26","359","Y","N","Visit 1","1","2015-11-30","58","Vital Signs","Temperature (°C)","36.9040139940817","36.6","37"
"01-012","Clinical Site 01","01","36","M","White","Placebo","PLACEBO","Ongoing","2015-04-18","2015-12-21","248","Y","1","2015-06-06","50","2016-04-26","375","N","Y","Screening","0","2015-04-18","1","Vital Signs","Diastolic Blood Pressure (mmHg)","79.1904867843224","60","80"
"01-012","Clinical Site 01","01","36","M","White","Placebo","PLACEBO","Ongoing","2015-04-18","2015-12-21","248","Y","1","2015-06-06","50","2016-04-26","375","N","Y","Screening","0","2015-04-18","1","Vital Signs","Heart Rate (beats/minute)","83.7721471525341","50","80"
"01-012","Clinical Site 01","01","36","M","White","Placebo","PLACEBO","Ongoing","2015-04-18","2015-12-21","248","Y","1","2015-06-06","50","2016-04-26","375","N","Y","Screening","0","2015-04-18","1","Vital Signs","Respiratory Rate (breaths/minute)","17.0994719390928","16","20"
"01-012","Clinical Site 01","01","36","M","White","Placebo","PLACEBO","Ongoing","2015-04-18","2015-12-21","248","Y","1","2015-06-06","50","2016-04-26","375","N","Y","Screening","0","2015-04-18","1","Vital Signs","Systolic Blood Pressure (mmHg)","118.995848085006","90","120"
"01-012","Clinical Site 01","01","36","M","White","Placebo","PLACEBO","Ongoing","2015-04-18","2015-12-21","248","Y","1","2015-06-06","50","2016-04-26","375","N","Y","Screening","0","2015-04-18","1","Vital Signs","Temperature (°C)","36.5073945539854","36.6","37"
"01-012","Clinical Site 01","01","36","M","White","Placebo","PLACEBO","Ongoing","2015-04-18","2015-12-21","248","Y","1","2015-06-06","50","2016-04-26","375","N","Y","Visit 1","1","2015-06-06","50","Vital Signs","Diastolic Blood Pressure (mmHg)","","60","80"
"01-012","Clinical Site 01","01","36","M","White","Placebo","PLACEBO","Ongoing","2015-04-18","2015-12-21","248","Y","1","2015-06-06","50","2016-04-26","375","N","Y","Visit 1","1","2015-06-06","50","Vital Signs","Heart Rate (beats/minute)","68.6458101229868","50","80"
"01-012","Clinical Site 01","01","36","M","White","Placebo","PLACEBO","Ongoing","2015-04-18","2015-12-21","248","Y","1","2015-06-06","50","2016-04-26","375","N","Y","Visit 1","1","2015-06-06","50","Vital Signs","Respiratory Rate (breaths/minute)","22.1151865846861","16","20"
"01-012","Clinical Site 01","01","36","M","White","Placebo","PLACEBO","Ongoing","2015-04-18","2015-12-21","248","Y","1","2015-06-06","50","2016-04-26","375","N","Y","Visit 1","1","2015-06-06","50","Vital Signs","Systolic Blood Pressure (mmHg)","103.274565502826","90","120"
"01-012","Clinical Site 01","01","36","M","White","Placebo","PLACEBO","Ongoing","2015-04-18","2015-12-21","248","Y","1","2015-06-06","50","2016-04-26","375","N","Y","Visit 1","1","2015-06-06","50","Vital Signs","Temperature (°C)","36.6387120645677","36.6","37"
"01-012","Clinical Site 01","01","36","M","White","Placebo","PLACEBO","Ongoing","2015-04-18","2015-12-21","248","Y","1","2015-06-06","50","2016-04-26","375","N","Y","Visit 3","3","2015-10-07","173","Vital Signs","Diastolic Blood Pressure (mmHg)","72.2038778493554","60","80"
"01-012","Clinical Site 01","01","36","M","White","Placebo","PLACEBO","Ongoing","2015-04-18","2015-12-21","248","Y","1","2015-06-06","50","2016-04-26","375","N","Y","Visit 3","3","2015-10-07","173","Vital Signs","Heart Rate (beats/minute)","73.8095648167025","50","80"
"01-012","Clinical Site 01","01","36","M","White","Placebo","PLACEBO","Ongoing","2015-04-18","2015-12-21","248","Y","1","2015-06-06","50","2016-04-26","375","N","Y","Visit 3","3","2015-10-07","173","Vital Signs","Respiratory Rate (breaths/minute)","","16","20"
"01-012","Clinical Site 01","01","36","M","White","Placebo","PLACEBO","Ongoing","2015-04-18","2015-12-21","248","Y","1","2015-06-06","50","2016-04-26","375","N","Y","Visit 3","3","2015-10-07","173","Vital Signs","Systolic Blood Pressure (mmHg)","83.084985881373","90","120"
"01-012","Clinical Site 01","01","36","M","White","Placebo","PLACEBO","Ongoing","2015-04-18","2015-12-21","248","Y","1","2015-06-06","50","2016-04-26","375","N","Y","Visit 3","3","2015-10-07","173","Vital Signs","Temperature (°C)","36.8558876867788","36.6","37"
"01-013","Clinical Site 01","01","40","F","White","Treatment A","TRTA","Ongoing","2015-07-15","2016-06-08","330","Y","1","2015-09-11","59","2016-07-08","360","Y","Y","Screening","0","2015-07-15","1","Vital Signs","Diastolic Blood Pressure (mmHg)","75.9480888685371","60","80"
"01-013","Clinical Site 01","01","40","F","White","Treatment A","TRTA","Ongoing","2015-07-15","2016-06-08","330","Y","1","2015-09-11","59","2016-07-08","360","Y","Y","Screening","0","2015-07-15","1","Vital Signs","Heart Rate (beats/minute)","60.2155937943917","50","80"
"01-013","Clinical Site 01","01","40","F","White","Treatment A","TRTA","Ongoing","2015-07-15","2016-06-08","330","Y","1","2015-09-11","59","2016-07-08","360","Y","Y","Screening","0","2015-07-15","1","Vital Signs","Respiratory Rate (breaths/minute)","16.2588898030988","16","20"
"01-013","Clinical Site 01","01","40","F","White","Treatment A","TRTA","Ongoing","2015-07-15","2016-06-08","330","Y","1","2015-09-11","59","2016-07-08","360","Y","Y","Screening","0","2015-07-15","1","Vital Signs","Systolic Blood Pressure (mmHg)","83.2356273204574","90","120"
"01-013","Clinical Site 01","01","40","F","White","Treatment A","TRTA","Ongoing","2015-07-15","2016-06-08","330","Y","1","2015-09-11","59","2016-07-08","360","Y","Y","Screening","0","2015-07-15","1","Vital Signs","Temperature (°C)","36.8671914119849","36.6","37"
"01-013","Clinical Site 01","01","40","F","White","Treatment A","TRTA","Ongoing","2015-07-15","2016-06-08","330","Y","1","2015-09-11","59","2016-07-08","360","Y","Y","Visit 1","1","2015-09-11","59","Vital Signs","Diastolic Blood Pressure (mmHg)","","60","80"
"01-013","Clinical Site 01","01","40","F","White","Treatment A","TRTA","Ongoing","2015-07-15","2016-06-08","330","Y","1","2015-09-11","59","2016-07-08","360","Y","Y","Visit 1","1","2015-09-11","59","Vital Signs","Heart Rate (beats/minute)","72.7458077987518","50","80"
"01-013","Clinical Site 01","01","40","F","White","Treatment A","TRTA","Ongoing","2015-07-15","2016-06-08","330","Y","1","2015-09-11","59","2016-07-08","360","Y","Y","Visit 1","1","2015-09-11","59","Vital Signs","Respiratory Rate (breaths/minute)","14.7507804307273","16","20"
"01-013","Clinical Site 01","01","40","F","White","Treatment A","TRTA","Ongoing","2015-07-15","2016-06-08","330","Y","1","2015-09-11","59","2016-07-08","360","Y","Y","Visit 1","1","2015-09-11","59","Vital Signs","Systolic Blood Pressure (mmHg)","115.062230153604","90","120"
"01-013","Clinical Site 01","01","40","F","White","Treatment A","TRTA","Ongoing","2015-07-15","2016-06-08","330","Y","1","2015-09-11","59","2016-07-08","360","Y","Y","Visit 1","1","2015-09-11","59","Vital Signs","Temperature (°C)","36.8628757840792","36.6","37"
"01-013","Clinical Site 01","01","40","F","White","Treatment A","TRTA","Ongoing","2015-07-15","2016-06-08","330","Y","1","2015-09-11","59","2016-07-08","360","Y","Y","Visit 2","2","2015-10-27","105","Vital Signs","Diastolic Blood Pressure (mmHg)","75.303852367261","60","80"
"01-013","Clinical Site 01","01","40","F","White","Treatment A","TRTA","Ongoing","2015-07-15","2016-06-08","330","Y","1","2015-09-11","59","2016-07-08","360","Y","Y","Visit 2","2","2015-10-27","105","Vital Signs","Heart Rate (beats/minute)","47.9497038967719","50","80"
"01-013","Clinical Site 01","01","40","F","White","Treatment A","TRTA","Ongoing","2015-07-15","2016-06-08","330","Y","1","2015-09-11","59","2016-07-08","360","Y","Y","Visit 2","2","2015-10-27","105","Vital Signs","Respiratory Rate (breaths/minute)","15.94171998367","16","20"
"01-013","Clinical Site 01","01","40","F","White","Treatment A","TRTA","Ongoing","2015-07-15","2016-06-08","330","Y","1","2015-09-11","59","2016-07-08","360","Y","Y","Visit 2","2","2015-10-27","105","Vital Signs","Systolic Blood Pressure (mmHg)","95.4853973079558","90","120"
"01-013","Clinical Site 01","01","40","F","White","Treatment A","TRTA","Ongoing","2015-07-15","2016-06-08","330","Y","1","2015-09-11","59","2016-07-08","360","Y","Y","Visit 2","2","2015-10-27","105","Vital Signs","Temperature (°C)","37.0205478899803","36.6","37"
"01-013","Clinical Site 01","01","40","F","White","Treatment A","TRTA","Ongoing","2015-07-15","2016-06-08","330","Y","1","2015-09-11","59","2016-07-08","360","Y","Y","Visit 3","3","2016-01-03","173","Vital Signs","Diastolic Blood Pressure (mmHg)","67.9436932590303","60","80"
"01-013","Clinical Site 01","01","40","F","White","Treatment A","TRTA","Ongoing","2015-07-15","2016-06-08","330","Y","1","2015-09-11","59","2016-07-08","360","Y","Y","Visit 3","3","2016-01-03","173","Vital Signs","Heart Rate (beats/minute)","62.311179893552","50","80"
"01-013","Clinical Site 01","01","40","F","White","Treatment A","TRTA","Ongoing","2015-07-15","2016-06-08","330","Y","1","2015-09-11","59","2016-07-08","360","Y","Y","Visit 3","3","2016-01-03","173","Vital Signs","Respiratory Rate (breaths/minute)","","16","20"
"01-013","Clinical Site 01","01","40","F","White","Treatment A","TRTA","Ongoing","2015-07-15","2016-06-08","330","Y","1","2015-09-11","59","2016-07-08","360","Y","Y","Visit 3","3","2016-01-03","173","Vital Signs","Systolic Blood Pressure (mmHg)","","90","120"
"01-013","Clinical Site 01","01","40","F","White","Treatment A","TRTA","Ongoing","2015-07-15","2016-06-08","330","Y","1","2015-09-11","59","2016-07-08","360","Y","Y","Visit 3","3","2016-01-03","173","Vital Signs","Temperature (°C)","36.74234172568","36.6","37"
"01-013","Clinical Site 01","01","40","F","White","Treatment A","TRTA","Ongoing","2015-07-15","2016-06-08","330","Y","1","2015-09-11","59","2016-07-08","360","Y","Y","Visit 4","4","2016-02-23","224","Vital Signs","Diastolic Blood Pressure (mmHg)","","60","80"
"01-013","Clinical Site 01","01","40","F","White","Treatment A","TRTA","Ongoing","2015-07-15","2016-06-08","330","Y","1","2015-09-11","59","2016-07-08","360","Y","Y","Visit 4","4","2016-02-23","224","Vital Signs","Heart Rate (beats/minute)","","50","80"
"01-013","Clinical Site 01","01","40","F","White","Treatment A","TRTA","Ongoing","2015-07-15","2016-06-08","330","Y","1","2015-09-11","59","2016-07-08","360","Y","Y","Visit 4","4","2016-02-23","224","Vital Signs","Respiratory Rate (breaths/minute)","19.7869398396238","16","20"
"01-013","Clinical Site 01","01","40","F","White","Treatment A","TRTA","Ongoing","2015-07-15","2016-06-08","330","Y","1","2015-09-11","59","2016-07-08","360","Y","Y","Visit 4","4","2016-02-23","224","Vital Signs","Systolic Blood Pressure (mmHg)","95.2815014340498","90","120"
"01-013","Clinical Site 01","01","40","F","White","Treatment A","TRTA","Ongoing","2015-07-15","2016-06-08","330","Y","1","2015-09-11","59","2016-07-08","360","Y","Y","Visit 4","4","2016-02-23","224","Vital Signs","Temperature (°C)","36.7424114280014","36.6","37"
"01-013","Clinical Site 01","01","40","F","White","Treatment A","TRTA","Ongoing","2015-07-15","2016-06-08","330","Y","1","2015-09-11","59","2016-07-08","360","Y","Y","Unscheduled 4.1","4.1","2016-03-02","232","Vital Signs","Diastolic Blood Pressure (mmHg)","72.0953562493061","60","80"
"01-013","Clinical Site 01","01","40","F","White","Treatment A","TRTA","Ongoing","2015-07-15","2016-06-08","330","Y","1","2015-09-11","59","2016-07-08","360","Y","Y","Unscheduled 4.1","4.1","2016-03-02","232","Vital Signs","Heart Rate (beats/minute)","64.1171456825495","50","80"
"01-013","Clinical Site 01","01","40","F","White","Treatment A","TRTA","Ongoing","2015-07-15","2016-06-08","330","Y","1","2015-09-11","59","2016-07-08","360","Y","Y","Unscheduled 4.1","4.1","2016-03-02","232","Vital Signs","Respiratory Rate (breaths/minute)","20.6057982545154","16","20"
"01-013","Clinical Site 01","01","40","F","White","Treatment A","TRTA","Ongoing","2015-07-15","2016-06-08","330","Y","1","2015-09-11","59","2016-07-08","360","Y","Y","Unscheduled 4.1","4.1","2016-03-02","232","Vital Signs","Systolic Blood Pressure (mmHg)","98.2903226687268","90","120"
"01-013","Clinical Site 01","01","40","F","White","Treatment A","TRTA","Ongoing","2015-07-15","2016-06-08","330","Y","1","2015-09-11","59","2016-07-08","360","Y","Y","Unscheduled 4.1","4.1","2016-03-02","232","Vital Signs","Temperature (°C)","36.6976393696249","36.6","37"
"01-013","Clinical Site 01","01","40","F","White","Treatment A","TRTA","Ongoing","2015-07-15","2016-06-08","330","Y","1","2015-09-11","59","2016-07-08","360","Y","Y","Visit 5","5","2016-04-15","276","Vital Signs","Diastolic Blood Pressure (mmHg)","84.8220753058711","60","80"
"01-013","Clinical Site 01","01","40","F","White","Treatment A","TRTA","Ongoing","2015-07-15","2016-06-08","330","Y","1","2015-09-11","59","2016-07-08","360","Y","Y","Visit 5","5","2016-04-15","276","Vital Signs","Heart Rate (beats/minute)","51.415669692097","50","80"
"01-013","Clinical Site 01","01","40","F","White","Treatment A","TRTA","Ongoing","2015-07-15","2016-06-08","330","Y","1","2015-09-11","59","2016-07-08","360","Y","Y","Visit 5","5","2016-04-15","276","Vital Signs","Respiratory Rate (breaths/minute)","17.3038668412975","16","20"
"01-013","Clinical Site 01","01","40","F","White","Treatment A","TRTA","Ongoing","2015-07-15","2016-06-08","330","Y","1","2015-09-11","59","2016-07-08","360","Y","Y","Visit 5","5","2016-04-15","276","Vital Signs","Systolic Blood Pressure (mmHg)","","90","120"
"01-013","Clinical Site 01","01","40","F","White","Treatment A","TRTA","Ongoing","2015-07-15","2016-06-08","330","Y","1","2015-09-11","59","2016-07-08","360","Y","Y","Visit 5","5","2016-04-15","276","Vital Signs","Temperature (°C)","36.6182477403154","36.6","37"
"01-014","Clinical Site 01","01","37","M","Black","Treatment A","TRTA","Ongoing","2015-07-24","2016-02-14","206","Y","1","2015-09-17","56","2016-07-21","364","Y","Y","Screening","0","2015-07-24","1","Vital Signs","Diastolic Blood Pressure (mmHg)","64.673042176822","60","80"
"01-014","Clinical Site 01","01","37","M","Black","Treatment A","TRTA","Ongoing","2015-07-24","2016-02-14","206","Y","1","2015-09-17","56","2016-07-21","364","Y","Y","Screening","0","2015-07-24","1","Vital Signs","Heart Rate (beats/minute)","69.6783922668525","50","80"
"01-014","Clinical Site 01","01","37","M","Black","Treatment A","TRTA","Ongoing","2015-07-24","2016-02-14","206","Y","1","2015-09-17","56","2016-07-21","364","Y","Y","Screening","0","2015-07-24","1","Vital Signs","Respiratory Rate (breaths/minute)","17.5924066049269","16","20"
"01-014","Clinical Site 01","01","37","M","Black","Treatment A","TRTA","Ongoing","2015-07-24","2016-02-14","206","Y","1","2015-09-17","56","2016-07-21","364","Y","Y","Screening","0","2015-07-24","1","Vital Signs","Systolic Blood Pressure (mmHg)","70.4733218899236","90","120"
"01-014","Clinical Site 01","01","37","M","Black","Treatment A","TRTA","Ongoing","2015-07-24","2016-02-14","206","Y","1","2015-09-17","56","2016-07-21","364","Y","Y","Screening","0","2015-07-24","1","Vital Signs","Temperature (°C)","37.2340017117041","36.6","37"
"01-014","Clinical Site 01","01","37","M","Black","Treatment A","TRTA","Ongoing","2015-07-24","2016-02-14","206","Y","1","2015-09-17","56","2016-07-21","364","Y","Y","Visit 1","1","2015-09-17","56","Vital Signs","Diastolic Blood Pressure (mmHg)","","60","80"
"01-014","Clinical Site 01","01","37","M","Black","Treatment A","TRTA","Ongoing","2015-07-24","2016-02-14","206","Y","1","2015-09-17","56","2016-07-21","364","Y","Y","Visit 1","1","2015-09-17","56","Vital Signs","Heart Rate (beats/minute)","51.586901305358","50","80"
"01-014","Clinical Site 01","01","37","M","Black","Treatment A","TRTA","Ongoing","2015-07-24","2016-02-14","206","Y","1","2015-09-17","56","2016-07-21","364","Y","Y","Visit 1","1","2015-09-17","56","Vital Signs","Respiratory Rate (breaths/minute)","","16","20"
"01-014","Clinical Site 01","01","37","M","Black","Treatment A","TRTA","Ongoing","2015-07-24","2016-02-14","206","Y","1","2015-09-17","56","2016-07-21","364","Y","Y","Visit 1","1","2015-09-17","56","Vital Signs","Systolic Blood Pressure (mmHg)","90.2554206070621","90","120"
"01-014","Clinical Site 01","01","37","M","Black","Treatment A","TRTA","Ongoing","2015-07-24","2016-02-14","206","Y","1","2015-09-17","56","2016-07-21","364","Y","Y","Visit 1","1","2015-09-17","56","Vital Signs","Temperature (°C)","36.4478250468044","36.6","37"
"01-014","Clinical Site 01","01","37","M","Black","Treatment A","TRTA","Ongoing","2015-07-24","2016-02-14","206","Y","1","2015-09-17","56","2016-07-21","364","Y","Y","Visit 2","2","2015-11-14","114","Vital Signs","Diastolic Blood Pressure (mmHg)","90.100134467154","60","80"
"01-014","Clinical Site 01","01","37","M","Black","Treatment A","TRTA","Ongoing","2015-07-24","2016-02-14","206","Y","1","2015-09-17","56","2016-07-21","364","Y","Y","Visit 2","2","2015-11-14","114","Vital Signs","Heart Rate (beats/minute)","57.9825494224215","50","80"
"01-014","Clinical Site 01","01","37","M","Black","Treatment A","TRTA","Ongoing","2015-07-24","2016-02-14","206","Y","1","2015-09-17","56","2016-07-21","364","Y","Y","Visit 2","2","2015-11-14","114","Vital Signs","Respiratory Rate (breaths/minute)","16.982969326002","16","20"
"01-014","Clinical Site 01","01","37","M","Black","Treatment A","TRTA","Ongoing","2015-07-24","2016-02-14","206","Y","1","2015-09-17","56","2016-07-21","364","Y","Y","Visit 2","2","2015-11-14","114","Vital Signs","Systolic Blood Pressure (mmHg)","96.9445120998125","90","120"
"01-014","Clinical Site 01","01","37","M","Black","Treatment A","TRTA","Ongoing","2015-07-24","2016-02-14","206","Y","1","2015-09-17","56","2016-07-21","364","Y","Y","Visit 2","2","2015-11-14","114","Vital Signs","Temperature (°C)","36.576165532376","36.6","37"
"01-014","Clinical Site 01","01","37","M","Black","Treatment A","TRTA","Ongoing","2015-07-24","2016-02-14","206","Y","1","2015-09-17","56","2016-07-21","364","Y","Y","Visit 3","3","2016-01-09","170","Vital Signs","Diastolic Blood Pressure (mmHg)","72.9707285992666","60","80"
"01-014","Clinical Site 01","01","37","M","Black","Treatment A","TRTA","Ongoing","2015-07-24","2016-02-14","206","Y","1","2015-09-17","56","2016-07-21","364","Y","Y","Visit 3","3","2016-01-09","170","Vital Signs","Heart Rate (beats/minute)","86.3504622830802","50","80"
"01-014","Clinical Site 01","01","37","M","Black","Treatment A","TRTA","Ongoing","2015-07-24","2016-02-14","206","Y","1","2015-09-17","56","2016-07-21","364","Y","Y","Visit 3","3","2016-01-09","170","Vital Signs","Respiratory Rate (breaths/minute)","","16","20"
"01-014","Clinical Site 01","01","37","M","Black","Treatment A","TRTA","Ongoing","2015-07-24","2016-02-14","206","Y","1","2015-09-17","56","2016-07-21","364","Y","Y","Visit 3","3","2016-01-09","170","Vital Signs","Systolic Blood Pressure (mmHg)","121.858628660209","90","120"
"01-014","Clinical Site 01","01","37","M","Black","Treatment A","TRTA","Ongoing","2015-07-24","2016-02-14","206","Y","1","2015-09-17","56","2016-07-21","364","Y","Y","Visit 3","3","2016-01-09","170","Vital Signs","Temperature (°C)","36.836330812821","36.6","37"
"01-015","Clinical Site 01","01","26","M","Hispanic","Treatment B","TRTB","Ongoing","2015-04-28","2015-11-07","194","Y","1","2015-06-15","49","2016-05-05","374","N","Y","Screening","0","2015-04-28","1","Vital Signs","Diastolic Blood Pressure (mmHg)","82.6927127060728","60","80"
"01-015","Clinical Site 01","01","26","M","Hispanic","Treatment B","TRTB","Ongoing","2015-04-28","2015-11-07","194","Y","1","2015-06-15","49","2016-05-05","374","N","Y","Screening","0","2015-04-28","1","Vital Signs","Heart Rate (beats/minute)","75.9949201349765","50","80"
"01-015","Clinical Site 01","01","26","M","Hispanic","Treatment B","TRTB","Ongoing","2015-04-28","2015-11-07","194","Y","1","2015-06-15","49","2016-05-05","374","N","Y","Screening","0","2015-04-28","1","Vital Signs","Respiratory Rate (breaths/minute)","16.8071994611498","16","20"
"01-015","Clinical Site 01","01","26","M","Hispanic","Treatment B","TRTB","Ongoing","2015-04-28","2015-11-07","194","Y","1","2015-06-15","49","2016-05-05","374","N","Y","Screening","0","2015-04-28","1","Vital Signs","Systolic Blood Pressure (mmHg)","132.721791894596","90","120"
"01-015","Clinical Site 01","01","26","M","Hispanic","Treatment B","TRTB","Ongoing","2015-04-28","2015-11-07","194","Y","1","2015-06-15","49","2016-05-05","374","N","Y","Screening","0","2015-04-28","1","Vital Signs","Temperature (°C)","36.8463274719731","36.6","37"
"01-015","Clinical Site 01","01","26","M","Hispanic","Treatment B","TRTB","Ongoing","2015-04-28","2015-11-07","194","Y","1","2015-06-15","49","2016-05-05","374","N","Y","Visit 1","1","2015-06-15","49","Vital Signs","Diastolic Blood Pressure (mmHg)","","60","80"
"01-015","Clinical Site 01","01","26","M","Hispanic","Treatment B","TRTB","Ongoing","2015-04-28","2015-11-07","194","Y","1","2015-06-15","49","2016-05-05","374","N","Y","Visit 1","1","2015-06-15","49","Vital Signs","Heart Rate (beats/minute)","55.7146801543175","50","80"
"01-015","Clinical Site 01","01","26","M","Hispanic","Treatment B","TRTB","Ongoing","2015-04-28","2015-11-07","194","Y","1","2015-06-15","49","2016-05-05","374","N","Y","Visit 1","1","2015-06-15","49","Vital Signs","Respiratory Rate (breaths/minute)","22.2648627836147","16","20"
"01-015","Clinical Site 01","01","26","M","Hispanic","Treatment B","TRTB","Ongoing","2015-04-28","2015-11-07","194","Y","1","2015-06-15","49","2016-05-05","374","N","Y","Visit 1","1","2015-06-15","49","Vital Signs","Systolic Blood Pressure (mmHg)","113.624043046493","90","120"
"01-015","Clinical Site 01","01","26","M","Hispanic","Treatment B","TRTB","Ongoing","2015-04-28","2015-11-07","194","Y","1","2015-06-15","49","2016-05-05","374","N","Y","Visit 1","1","2015-06-15","49","Vital Signs","Temperature (°C)","36.7275707711113","36.6","37"
"01-015","Clinical Site 01","01","26","M","Hispanic","Treatment B","TRTB","Ongoing","2015-04-28","2015-11-07","194","Y","1","2015-06-15","49","2016-05-05","374","N","Y","Visit 2","2","2015-08-17","112","Vital Signs","Diastolic Blood Pressure (mmHg)","61.4141146333772","60","80"
"01-015","Clinical Site 01","01","26","M","Hispanic","Treatment B","TRTB","Ongoing","2015-04-28","2015-11-07","194","Y","1","2015-06-15","49","2016-05-05","374","N","Y","Visit 2","2","2015-08-17","112","Vital Signs","Heart Rate (beats/minute)","41.3552860587444","50","80"
"01-015","Clinical Site 01","01","26","M","Hispanic","Treatment B","TRTB","Ongoing","2015-04-28","2015-11-07","194","Y","1","2015-06-15","49","2016-05-05","374","N","Y","Visit 2","2","2015-08-17","112","Vital Signs","Respiratory Rate (breaths/minute)","15.4365447801892","16","20"
"01-015","Clinical Site 01","01","26","M","Hispanic","Treatment B","TRTB","Ongoing","2015-04-28","2015-11-07","194","Y","1","2015-06-15","49","2016-05-05","374","N","Y","Visit 2","2","2015-08-17","112","Vital Signs","Systolic Blood Pressure (mmHg)","84.0513374001112","90","120"
"01-015","Clinical Site 01","01","26","M","Hispanic","Treatment B","TRTB","Ongoing","2015-04-28","2015-11-07","194","Y","1","2015-06-15","49","2016-05-05","374","N","Y","Visit 2","2","2015-08-17","112","Vital Signs","Temperature (°C)","36.7193862569198","36.6","37"
"01-016","Clinical Site 01","01","18","M","Black","Treatment A","TRTA","Ongoing","2015-12-21","2016-09-06","261","Y","1","2016-02-09","51","2016-12-28","374","Y","N","Screening","0","2015-12-21","1","Vital Signs","Diastolic Blood Pressure (mmHg)","61.7703165139258","60","80"
"01-016","Clinical Site 01","01","18","M","Black","Treatment A","TRTA","Ongoing","2015-12-21","2016-09-06","261","Y","1","2016-02-09","51","2016-12-28","374","Y","N","Screening","0","2015-12-21","1","Vital Signs","Heart Rate (beats/minute)","53.0253036905665","50","80"
"01-016","Clinical Site 01","01","18","M","Black","Treatment A","TRTA","Ongoing","2015-12-21","2016-09-06","261","Y","1","2016-02-09","51","2016-12-28","374","Y","N","Screening","0","2015-12-21","1","Vital Signs","Respiratory Rate (breaths/minute)","15.2619712760887","16","20"
"01-016","Clinical Site 01","01","18","M","Black","Treatment A","TRTA","Ongoing","2015-12-21","2016-09-06","261","Y","1","2016-02-09","51","2016-12-28","374","Y","N","Screening","0","2015-12-21","1","Vital Signs","Systolic Blood Pressure (mmHg)","120.336391649743","90","120"
"01-016","Clinical Site 01","01","18","M","Black","Treatment A","TRTA","Ongoing","2015-12-21","2016-09-06","261","Y","1","2016-02-09","51","2016-12-28","374","Y","N","Screening","0","2015-12-21","1","Vital Signs","Temperature (°C)","36.4899725578164","36.6","37"
"01-016","Clinical Site 01","01","18","M","Black","Treatment A","TRTA","Ongoing","2015-12-21","2016-09-06","261","Y","1","2016-02-09","51","2016-12-28","374","Y","N","Visit 1","1","2016-02-09","51","Vital Signs","Diastolic Blood Pressure (mmHg)","","60","80"
"01-016","Clinical Site 01","01","18","M","Black","Treatment A","TRTA","Ongoing","2015-12-21","2016-09-06","261","Y","1","2016-02-09","51","2016-12-28","374","Y","N","Visit 1","1","2016-02-09","51","Vital Signs","Heart Rate (beats/minute)","67.052608467864","50","80"
"01-016","Clinical Site 01","01","18","M","Black","Treatment A","TRTA","Ongoing","2015-12-21","2016-09-06","261","Y","1","2016-02-09","51","2016-12-28","374","Y","N","Visit 1","1","2016-02-09","51","Vital Signs","Respiratory Rate (breaths/minute)","16.091451041722","16","20"
"01-016","Clinical Site 01","01","18","M","Black","Treatment A","TRTA","Ongoing","2015-12-21","2016-09-06","261","Y","1","2016-02-09","51","2016-12-28","374","Y","N","Visit 1","1","2016-02-09","51","Vital Signs","Systolic Blood Pressure (mmHg)","87.1976476611926","90","120"
"01-016","Clinical Site 01","01","18","M","Black","Treatment A","TRTA","Ongoing","2015-12-21","2016-09-06","261","Y","1","2016-02-09","51","2016-12-28","374","Y","N","Visit 1","1","2016-02-09","51","Vital Signs","Temperature (°C)","36.7595751158045","36.6","37"
"01-016","Clinical Site 01","01","18","M","Black","Treatment A","TRTA","Ongoing","2015-12-21","2016-09-06","261","Y","1","2016-02-09","51","2016-12-28","374","Y","N","Visit 2","2","2016-04-15","117","Vital Signs","Diastolic Blood Pressure (mmHg)","88.7637672750326","60","80"
"01-016","Clinical Site 01","01","18","M","Black","Treatment A","TRTA","Ongoing","2015-12-21","2016-09-06","261","Y","1","2016-02-09","51","2016-12-28","374","Y","N","Visit 2","2","2016-04-15","117","Vital Signs","Heart Rate (beats/minute)","55.2396895981589","50","80"
"01-016","Clinical Site 01","01","18","M","Black","Treatment A","TRTA","Ongoing","2015-12-21","2016-09-06","261","Y","1","2016-02-09","51","2016-12-28","374","Y","N","Visit 2","2","2016-04-15","117","Vital Signs","Respiratory Rate (breaths/minute)","18.5718295566261","16","20"
"01-016","Clinical Site 01","01","18","M","Black","Treatment A","TRTA","Ongoing","2015-12-21","2016-09-06","261","Y","1","2016-02-09","51","2016-12-28","374","Y","N","Visit 2","2","2016-04-15","117","Vital Signs","Systolic Blood Pressure (mmHg)","114.432496112261","90","120"
"01-016","Clinical Site 01","01","18","M","Black","Treatment A","TRTA","Ongoing","2015-12-21","2016-09-06","261","Y","1","2016-02-09","51","2016-12-28","374","Y","N","Visit 2","2","2016-04-15","117","Vital Signs","Temperature (°C)","36.7990446525921","36.6","37"
"01-016","Clinical Site 01","01","18","M","Black","Treatment A","TRTA","Ongoing","2015-12-21","2016-09-06","261","Y","1","2016-02-09","51","2016-12-28","374","Y","N","Visit 3","3","2016-06-09","172","Vital Signs","Diastolic Blood Pressure (mmHg)","69.7778728154384","60","80"
"01-016","Clinical Site 01","01","18","M","Black","Treatment A","TRTA","Ongoing","2015-12-21","2016-09-06","261","Y","1","2016-02-09","51","2016-12-28","374","Y","N","Visit 3","3","2016-06-09","172","Vital Signs","Heart Rate (beats/minute)","73.0121755363804","50","80"
"01-016","Clinical Site 01","01","18","M","Black","Treatment A","TRTA","Ongoing","2015-12-21","2016-09-06","261","Y","1","2016-02-09","51","2016-12-28","374","Y","N","Visit 3","3","2016-06-09","172","Vital Signs","Respiratory Rate (breaths/minute)","","16","20"
"01-016","Clinical Site 01","01","18","M","Black","Treatment A","TRTA","Ongoing","2015-12-21","2016-09-06","261","Y","1","2016-02-09","51","2016-12-28","374","Y","N","Visit 3","3","2016-06-09","172","Vital Signs","Systolic Blood Pressure (mmHg)","94.8776637110145","90","120"
"01-016","Clinical Site 01","01","18","M","Black","Treatment A","TRTA","Ongoing","2015-12-21","2016-09-06","261","Y","1","2016-02-09","51","2016-12-28","374","Y","N","Visit 3","3","2016-06-09","172","Vital Signs","Temperature (°C)","36.566516650551","36.6","37"
"01-016","Clinical Site 01","01","18","M","Black","Treatment A","TRTA","Ongoing","2015-12-21","2016-09-06","261","Y","1","2016-02-09","51","2016-12-28","374","Y","N","Visit 4","4","2016-08-01","225","Vital Signs","Diastolic Blood Pressure (mmHg)","66.5809935074147","60","80"
"01-016","Clinical Site 01","01","18","M","Black","Treatment A","TRTA","Ongoing","2015-12-21","2016-09-06","261","Y","1","2016-02-09","51","2016-12-28","374","Y","N","Visit 4","4","2016-08-01","225","Vital Signs","Heart Rate (beats/minute)","53.7591793769799","50","80"
"01-016","Clinical Site 01","01","18","M","Black","Treatment A","TRTA","Ongoing","2015-12-21","2016-09-06","261","Y","1","2016-02-09","51","2016-12-28","374","Y","N","Visit 4","4","2016-08-01","225","Vital Signs","Respiratory Rate (breaths/minute)","18.7830987683227","16","20"
"01-016","Clinical Site 01","01","18","M","Black","Treatment A","TRTA","Ongoing","2015-12-21","2016-09-06","261","Y","1","2016-02-09","51","2016-12-28","374","Y","N","Visit 4","4","2016-08-01","225","Vital Signs","Systolic Blood Pressure (mmHg)","112.584386280902","90","120"
"01-016","Clinical Site 01","01","18","M","Black","Treatment A","TRTA","Ongoing","2015-12-21","2016-09-06","261","Y","1","2016-02-09","51","2016-12-28","374","Y","N","Visit 4","4","2016-08-01","225","Vital Signs","Temperature (°C)","37.0693733653276","36.6","37"
"01-017","Clinical Site 01","01","40","M","Hispanic","Treatment A","TRTA","Ongoing","2015-02-12","2015-08-05","175","Y","1","2015-04-04","52","2016-02-19","373","Y","Y","Screening","0","2015-02-12","1","Vital Signs","Diastolic Blood Pressure (mmHg)","58.484548003058","60","80"
"01-017","Clinical Site 01","01","40","M","Hispanic","Treatment A","TRTA","Ongoing","2015-02-12","2015-08-05","175","Y","1","2015-04-04","52","2016-02-19","373","Y","Y","Screening","0","2015-02-12","1","Vital Signs","Heart Rate (beats/minute)","76.766232723959","50","80"
"01-017","Clinical Site 01","01","40","M","Hispanic","Treatment A","TRTA","Ongoing","2015-02-12","2015-08-05","175","Y","1","2015-04-04","52","2016-02-19","373","Y","Y","Screening","0","2015-02-12","1","Vital Signs","Respiratory Rate (breaths/minute)","17.4637669722836","16","20"
"01-017","Clinical Site 01","01","40","M","Hispanic","Treatment A","TRTA","Ongoing","2015-02-12","2015-08-05","175","Y","1","2015-04-04","52","2016-02-19","373","Y","Y","Screening","0","2015-02-12","1","Vital Signs","Systolic Blood Pressure (mmHg)","","90","120"
"01-017","Clinical Site 01","01","40","M","Hispanic","Treatment A","TRTA","Ongoing","2015-02-12","2015-08-05","175","Y","1","2015-04-04","52","2016-02-19","373","Y","Y","Screening","0","2015-02-12","1","Vital Signs","Temperature (°C)","36.9223174671207","36.6","37"
"01-017","Clinical Site 01","01","40","M","Hispanic","Treatment A","TRTA","Ongoing","2015-02-12","2015-08-05","175","Y","1","2015-04-04","52","2016-02-19","373","Y","Y","Visit 1","1","2015-04-04","52","Vital Signs","Diastolic Blood Pressure (mmHg)","","60","80"
"01-017","Clinical Site 01","01","40","M","Hispanic","Treatment A","TRTA","Ongoing","2015-02-12","2015-08-05","175","Y","1","2015-04-04","52","2016-02-19","373","Y","Y","Visit 1","1","2015-04-04","52","Vital Signs","Heart Rate (beats/minute)","58.4765599885773","50","80"
"01-017","Clinical Site 01","01","40","M","Hispanic","Treatment A","TRTA","Ongoing","2015-02-12","2015-08-05","175","Y","1","2015-04-04","52","2016-02-19","373","Y","Y","Visit 1","1","2015-04-04","52","Vital Signs","Respiratory Rate (breaths/minute)","20.5869778828831","16","20"
"01-017","Clinical Site 01","01","40","M","Hispanic","Treatment A","TRTA","Ongoing","2015-02-12","2015-08-05","175","Y","1","2015-04-04","52","2016-02-19","373","Y","Y","Visit 1","1","2015-04-04","52","Vital Signs","Systolic Blood Pressure (mmHg)","116.720252183881","90","120"
"01-017","Clinical Site 01","01","40","M","Hispanic","Treatment A","TRTA","Ongoing","2015-02-12","2015-08-05","175","Y","1","2015-04-04","52","2016-02-19","373","Y","Y","Visit 1","1","2015-04-04","52","Vital Signs","Temperature (°C)","36.9084816343512","36.6","37"
"01-017","Clinical Site 01","01","40","M","Hispanic","Treatment A","TRTA","Ongoing","2015-02-12","2015-08-05","175","Y","1","2015-04-04","52","2016-02-19","373","Y","Y","Visit 2","2","2015-06-01","110","Vital Signs","Diastolic Blood Pressure (mmHg)","59.5037333310525","60","80"
"01-017","Clinical Site 01","01","40","M","Hispanic","Treatment A","TRTA","Ongoing","2015-02-12","2015-08-05","175","Y","1","2015-04-04","52","2016-02-19","373","Y","Y","Visit 2","2","2015-06-01","110","Vital Signs","Heart Rate (beats/minute)","53.1396012219611","50","80"
"01-017","Clinical Site 01","01","40","M","Hispanic","Treatment A","TRTA","Ongoing","2015-02-12","2015-08-05","175","Y","1","2015-04-04","52","2016-02-19","373","Y","Y","Visit 2","2","2015-06-01","110","Vital Signs","Respiratory Rate (breaths/minute)","15.1325210543095","16","20"
"01-017","Clinical Site 01","01","40","M","Hispanic","Treatment A","TRTA","Ongoing","2015-02-12","2015-08-05","175","Y","1","2015-04-04","52","2016-02-19","373","Y","Y","Visit 2","2","2015-06-01","110","Vital Signs","Systolic Blood Pressure (mmHg)","98.2069914982695","90","120"
"01-017","Clinical Site 01","01","40","M","Hispanic","Treatment A","TRTA","Ongoing","2015-02-12","2015-08-05","175","Y","1","2015-04-04","52","2016-02-19","373","Y","Y","Visit 2","2","2015-06-01","110","Vital Signs","Temperature (°C)","36.7820826862631","36.6","37"
"01-018","Clinical Site 01","01","29","F","Hispanic","Treatment B","TRTB","Ongoing","2015-02-13","2015-07-01","139","Y","1","2015-04-04","51","2016-02-09","362","Y","N","Screening","0","2015-02-13","1","Vital Signs","Diastolic Blood Pressure (mmHg)","76.6267493055624","60","80"
"01-018","Clinical Site 01","01","29","F","Hispanic","Treatment B","TRTB","Ongoing","2015-02-13","2015-07-01","139","Y","1","2015-04-04","51","2016-02-09","362","Y","N","Screening","0","2015-02-13","1","Vital Signs","Heart Rate (beats/minute)","42.0966641093789","50","80"
"01-018","Clinical Site 01","01","29","F","Hispanic","Treatment B","TRTB","Ongoing","2015-02-13","2015-07-01","139","Y","1","2015-04-04","51","2016-02-09","362","Y","N","Screening","0","2015-02-13","1","Vital Signs","Respiratory Rate (breaths/minute)","16.9815548639506","16","20"
"01-018","Clinical Site 01","01","29","F","Hispanic","Treatment B","TRTB","Ongoing","2015-02-13","2015-07-01","139","Y","1","2015-04-04","51","2016-02-09","362","Y","N","Screening","0","2015-02-13","1","Vital Signs","Systolic Blood Pressure (mmHg)","94.3841647025199","90","120"
"01-018","Clinical Site 01","01","29","F","Hispanic","Treatment B","TRTB","Ongoing","2015-02-13","2015-07-01","139","Y","1","2015-04-04","51","2016-02-09","362","Y","N","Screening","0","2015-02-13","1","Vital Signs","Temperature (°C)","37.0889197240402","36.6","37"
"01-018","Clinical Site 01","01","29","F","Hispanic","Treatment B","TRTB","Ongoing","2015-02-13","2015-07-01","139","Y","1","2015-04-04","51","2016-02-09","362","Y","N","Visit 1","1","2015-04-04","51","Vital Signs","Diastolic Blood Pressure (mmHg)","","60","80"
"01-018","Clinical Site 01","01","29","F","Hispanic","Treatment B","TRTB","Ongoing","2015-02-13","2015-07-01","139","Y","1","2015-04-04","51","2016-02-09","362","Y","N","Visit 1","1","2015-04-04","51","Vital Signs","Heart Rate (beats/minute)","78.0041839865597","50","80"
"01-018","Clinical Site 01","01","29","F","Hispanic","Treatment B","TRTB","Ongoing","2015-02-13","2015-07-01","139","Y","1","2015-04-04","51","2016-02-09","362","Y","N","Visit 1","1","2015-04-04","51","Vital Signs","Respiratory Rate (breaths/minute)","15.5699076185724","16","20"
"01-018","Clinical Site 01","01","29","F","Hispanic","Treatment B","TRTB","Ongoing","2015-02-13","2015-07-01","139","Y","1","2015-04-04","51","2016-02-09","362","Y","N","Visit 1","1","2015-04-04","51","Vital Signs","Systolic Blood Pressure (mmHg)","98.9959950753849","90","120"
"01-018","Clinical Site 01","01","29","F","Hispanic","Treatment B","TRTB","Ongoing","2015-02-13","2015-07-01","139","Y","1","2015-04-04","51","2016-02-09","362","Y","N","Visit 1","1","2015-04-04","51","Vital Signs","Temperature (°C)","36.8292860801983","36.6","37"
"01-019","Clinical Site 01","01","47","M","Other/Mixed","Treatment B","TRTB","Ongoing","2015-04-24","2016-01-31","283","Y","1","2015-06-15","53","2016-04-27","370","Y","Y","Screening","0","2015-04-24","1","Vital Signs","Diastolic Blood Pressure (mmHg)","61.4558744711706","60","80"
"01-019","Clinical Site 01","01","47","M","Other/Mixed","Treatment B","TRTB","Ongoing","2015-04-24","2016-01-31","283","Y","1","2015-06-15","53","2016-04-27","370","Y","Y","Screening","0","2015-04-24","1","Vital Signs","Heart Rate (beats/minute)","34.3140815743033","50","80"
"01-019","Clinical Site 01","01","47","M","Other/Mixed","Treatment B","TRTB","Ongoing","2015-04-24","2016-01-31","283","Y","1","2015-06-15","53","2016-04-27","370","Y","Y","Screening","0","2015-04-24","1","Vital Signs","Respiratory Rate (breaths/minute)","17.2835427429571","16","20"
"01-019","Clinical Site 01","01","47","M","Other/Mixed","Treatment B","TRTB","Ongoing","2015-04-24","2016-01-31","283","Y","1","2015-06-15","53","2016-04-27","370","Y","Y","Screening","0","2015-04-24","1","Vital Signs","Systolic Blood Pressure (mmHg)","105.693308712896","90","120"
"01-019","Clinical Site 01","01","47","M","Other/Mixed","Treatment B","TRTB","Ongoing","2015-04-24","2016-01-31","283","Y","1","2015-06-15","53","2016-04-27","370","Y","Y","Screening","0","2015-04-24","1","Vital Signs","Temperature (°C)","37.2462336615859","36.6","37"
"01-019","Clinical Site 01","01","47","M","Other/Mixed","Treatment B","TRTB","Ongoing","2015-04-24","2016-01-31","283","Y","1","2015-06-15","53","2016-04-27","370","Y","Y","Visit 1","1","2015-06-15","53","Vital Signs","Diastolic Blood Pressure (mmHg)","","60","80"
"01-019","Clinical Site 01","01","47","M","Other/Mixed","Treatment B","TRTB","Ongoing","2015-04-24","2016-01-31","283","Y","1","2015-06-15","53","2016-04-27","370","Y","Y","Visit 1","1","2015-06-15","53","Vital Signs","Heart Rate (beats/minute)","75.4400542119675","50","80"
"01-019","Clinical Site 01","01","47","M","Other/Mixed","Treatment B","TRTB","Ongoing","2015-04-24","2016-01-31","283","Y","1","2015-06-15","53","2016-04-27","370","Y","Y","Visit 1","1","2015-06-15","53","Vital Signs","Respiratory Rate (breaths/minute)","15.1397357793448","16","20"
"01-019","Clinical Site 01","01","47","M","Other/Mixed","Treatment B","TRTB","Ongoing","2015-04-24","2016-01-31","283","Y","1","2015-06-15","53","2016-04-27","370","Y","Y","Visit 1","1","2015-06-15","53","Vital Signs","Systolic Blood Pressure (mmHg)","100.304634628606","90","120"
"01-019","Clinical Site 01","01","47","M","Other/Mixed","Treatment B","TRTB","Ongoing","2015-04-24","2016-01-31","283","Y","1","2015-06-15","53","2016-04-27","370","Y","Y","Visit 1","1","2015-06-15","53","Vital Signs","Temperature (°C)","36.2957784114542","36.6","37"
"01-019","Clinical Site 01","01","47","M","Other/Mixed","Treatment B","TRTB","Ongoing","2015-04-24","2016-01-31","283","Y","1","2015-06-15","53","2016-04-27","370","Y","Y","Visit 2","2","2015-08-13","112","Vital Signs","Diastolic Blood Pressure (mmHg)","51.1995700194801","60","80"
"01-019","Clinical Site 01","01","47","M","Other/Mixed","Treatment B","TRTB","Ongoing","2015-04-24","2016-01-31","283","Y","1","2015-06-15","53","2016-04-27","370","Y","Y","Visit 2","2","2015-08-13","112","Vital Signs","Heart Rate (beats/minute)","72.9523983078826","50","80"
"01-019","Clinical Site 01","01","47","M","Other/Mixed","Treatment B","TRTB","Ongoing","2015-04-24","2016-01-31","283","Y","1","2015-06-15","53","2016-04-27","370","Y","Y","Visit 2","2","2015-08-13","112","Vital Signs","Respiratory Rate (breaths/minute)","17.884639200256","16","20"
"01-019","Clinical Site 01","01","47","M","Other/Mixed","Treatment B","TRTB","Ongoing","2015-04-24","2016-01-31","283","Y","1","2015-06-15","53","2016-04-27","370","Y","Y","Visit 2","2","2015-08-13","112","Vital Signs","Systolic Blood Pressure (mmHg)","116.371904351584","90","120"
"01-019","Clinical Site 01","01","47","M","Other/Mixed","Treatment B","TRTB","Ongoing","2015-04-24","2016-01-31","283","Y","1","2015-06-15","53","2016-04-27","370","Y","Y","Visit 2","2","2015-08-13","112","Vital Signs","Temperature (°C)","36.9714800347754","36.6","37"
"01-019","Clinical Site 01","01","47","M","Other/Mixed","Treatment B","TRTB","Ongoing","2015-04-24","2016-01-31","283","Y","1","2015-06-15","53","2016-04-27","370","Y","Y","Visit 3","3","2015-10-01","161","Vital Signs","Diastolic Blood Pressure (mmHg)","72.6537928573873","60","80"
"01-019","Clinical Site 01","01","47","M","Other/Mixed","Treatment B","TRTB","Ongoing","2015-04-24","2016-01-31","283","Y","1","2015-06-15","53","2016-04-27","370","Y","Y","Visit 3","3","2015-10-01","161","Vital Signs","Heart Rate (beats/minute)","100.678711005596","50","80"
"01-019","Clinical Site 01","01","47","M","Other/Mixed","Treatment B","TRTB","Ongoing","2015-04-24","2016-01-31","283","Y","1","2015-06-15","53","2016-04-27","370","Y","Y","Visit 3","3","2015-10-01","161","Vital Signs","Respiratory Rate (breaths/minute)","","16","20"
"01-019","Clinical Site 01","01","47","M","Other/Mixed","Treatment B","TRTB","Ongoing","2015-04-24","2016-01-31","283","Y","1","2015-06-15","53","2016-04-27","370","Y","Y","Visit 3","3","2015-10-01","161","Vital Signs","Systolic Blood Pressure (mmHg)","119.879644962367","90","120"
"01-019","Clinical Site 01","01","47","M","Other/Mixed","Treatment B","TRTB","Ongoing","2015-04-24","2016-01-31","283","Y","1","2015-06-15","53","2016-04-27","370","Y","Y","Visit 3","3","2015-10-01","161","Vital Signs","Temperature (°C)","36.8653140515141","36.6","37"
"01-019","Clinical Site 01","01","47","M","Other/Mixed","Treatment B","TRTB","Ongoing","2015-04-24","2016-01-31","283","Y","1","2015-06-15","53","2016-04-27","370","Y","Y","Visit 4","4","2015-12-01","222","Vital Signs","Diastolic Blood Pressure (mmHg)","49.1273365858142","60","80"
"01-019","Clinical Site 01","01","47","M","Other/Mixed","Treatment B","TRTB","Ongoing","2015-04-24","2016-01-31","283","Y","1","2015-06-15","53","2016-04-27","370","Y","Y","Visit 4","4","2015-12-01","222","Vital Signs","Heart Rate (beats/minute)","33.060903801035","50","80"
"01-019","Clinical Site 01","01","47","M","Other/Mixed","Treatment B","TRTB","Ongoing","2015-04-24","2016-01-31","283","Y","1","2015-06-15","53","2016-04-27","370","Y","Y","Visit 4","4","2015-12-01","222","Vital Signs","Respiratory Rate (breaths/minute)","20.0849564031584","16","20"
"01-019","Clinical Site 01","01","47","M","Other/Mixed","Treatment B","TRTB","Ongoing","2015-04-24","2016-01-31","283","Y","1","2015-06-15","53","2016-04-27","370","Y","Y","Visit 4","4","2015-12-01","222","Vital Signs","Systolic Blood Pressure (mmHg)","93.478487225696","90","120"
"01-019","Clinical Site 01","01","47","M","Other/Mixed","Treatment B","TRTB","Ongoing","2015-04-24","2016-01-31","283","Y","1","2015-06-15","53","2016-04-27","370","Y","Y","Visit 4","4","2015-12-01","222","Vital Signs","Temperature (°C)","37.1118075304399","36.6","37"
"01-021","Clinical Site 01","01","23","F","Black","Treatment A","TRTA","Ongoing","2015-10-04","2015-11-15","43","Y","1","2015-11-21","49","2016-10-01","364","Y","N","Screening","0","2015-10-04","1","Vital Signs","Diastolic Blood Pressure (mmHg)","67.0168001265409","60","80"
"01-021","Clinical Site 01","01","23","F","Black","Treatment A","TRTA","Ongoing","2015-10-04","2015-11-15","43","Y","1","2015-11-21","49","2016-10-01","364","Y","N","Screening","0","2015-10-04","1","Vital Signs","Heart Rate (beats/minute)","77.4034820603532","50","80"
"01-021","Clinical Site 01","01","23","F","Black","Treatment A","TRTA","Ongoing","2015-10-04","2015-11-15","43","Y","1","2015-11-21","49","2016-10-01","364","Y","N","Screening","0","2015-10-04","1","Vital Signs","Respiratory Rate (breaths/minute)","19.5924193857521","16","20"
"01-021","Clinical Site 01","01","23","F","Black","Treatment A","TRTA","Ongoing","2015-10-04","2015-11-15","43","Y","1","2015-11-21","49","2016-10-01","364","Y","N","Screening","0","2015-10-04","1","Vital Signs","Systolic Blood Pressure (mmHg)","81.5403172940746","90","120"
"01-021","Clinical Site 01","01","23","F","Black","Treatment A","TRTA","Ongoing","2015-10-04","2015-11-15","43","Y","1","2015-11-21","49","2016-10-01","364","Y","N","Screening","0","2015-10-04","1","Vital Signs","Temperature (°C)","36.7392361293616","36.6","37"
"01-022","Clinical Site 01","01","27","F","Black","Treatment A","TRTA","Completed","2015-10-01","2016-09-20","356","Y","1","2015-11-28","59","2016-10-07","373","Y","Y","Screening","0","2015-10-01","1","Vital Signs","Diastolic Blood Pressure (mmHg)","78.5790341537459","60","80"
"01-022","Clinical Site 01","01","27","F","Black","Treatment A","TRTA","Completed","2015-10-01","2016-09-20","356","Y","1","2015-11-28","59","2016-10-07","373","Y","Y","Screening","0","2015-10-01","1","Vital Signs","Heart Rate (beats/minute)","39.1678148411657","50","80"
"01-022","Clinical Site 01","01","27","F","Black","Treatment A","TRTA","Completed","2015-10-01","2016-09-20","356","Y","1","2015-11-28","59","2016-10-07","373","Y","Y","Screening","0","2015-10-01","1","Vital Signs","Respiratory Rate (breaths/minute)","16.9434562590265","16","20"
"01-022","Clinical Site 01","01","27","F","Black","Treatment A","TRTA","Completed","2015-10-01","2016-09-20","356","Y","1","2015-11-28","59","2016-10-07","373","Y","Y","Screening","0","2015-10-01","1","Vital Signs","Systolic Blood Pressure (mmHg)","102.231632844714","90","120"
"01-022","Clinical Site 01","01","27","F","Black","Treatment A","TRTA","Completed","2015-10-01","2016-09-20","356","Y","1","2015-11-28","59","2016-10-07","373","Y","Y","Screening","0","2015-10-01","1","Vital Signs","Temperature (°C)","36.723412496007","36.6","37"
"01-022","Clinical Site 01","01","27","F","Black","Treatment A","TRTA","Completed","2015-10-01","2016-09-20","356","Y","1","2015-11-28","59","2016-10-07","373","Y","Y","Visit 1","1","2015-11-28","59","Vital Signs","Diastolic Blood Pressure (mmHg)","","60","80"
"01-022","Clinical Site 01","01","27","F","Black","Treatment A","TRTA","Completed","2015-10-01","2016-09-20","356","Y","1","2015-11-28","59","2016-10-07","373","Y","Y","Visit 1","1","2015-11-28","59","Vital Signs","Heart Rate (beats/minute)","74.7912271386179","50","80"
"01-022","Clinical Site 01","01","27","F","Black","Treatment A","TRTA","Completed","2015-10-01","2016-09-20","356","Y","1","2015-11-28","59","2016-10-07","373","Y","Y","Visit 1","1","2015-11-28","59","Vital Signs","Respiratory Rate (breaths/minute)","22.2370222198628","16","20"
"01-022","Clinical Site 01","01","27","F","Black","Treatment A","TRTA","Completed","2015-10-01","2016-09-20","356","Y","1","2015-11-28","59","2016-10-07","373","Y","Y","Visit 1","1","2015-11-28","59","Vital Signs","Systolic Blood Pressure (mmHg)","116.118425024933","90","120"
"01-022","Clinical Site 01","01","27","F","Black","Treatment A","TRTA","Completed","2015-10-01","2016-09-20","356","Y","1","2015-11-28","59","2016-10-07","373","Y","Y","Visit 1","1","2015-11-28","59","Vital Signs","Temperature (°C)","36.6630098689222","36.6","37"
"01-022","Clinical Site 01","01","27","F","Black","Treatment A","TRTA","Completed","2015-10-01","2016-09-20","356","Y","1","2015-11-28","59","2016-10-07","373","Y","Y","Visit 2","2","2016-01-21","113","Vital Signs","Diastolic Blood Pressure (mmHg)","80.5595946231652","60","80"
"01-022","Clinical Site 01","01","27","F","Black","Treatment A","TRTA","Completed","2015-10-01","2016-09-20","356","Y","1","2015-11-28","59","2016-10-07","373","Y","Y","Visit 2","2","2016-01-21","113","Vital Signs","Heart Rate (beats/minute)","23.519246667662","50","80"
"01-022","Clinical Site 01","01","27","F","Black","Treatment A","TRTA","Completed","2015-10-01","2016-09-20","356","Y","1","2015-11-28","59","2016-10-07","373","Y","Y","Visit 2","2","2016-01-21","113","Vital Signs","Respiratory Rate (breaths/minute)","14.7913465245039","16","20"
"01-022","Clinical Site 01","01","27","F","Black","Treatment A","TRTA","Completed","2015-10-01","2016-09-20","356","Y","1","2015-11-28","59","2016-10-07","373","Y","Y","Visit 2","2","2016-01-21","113","Vital Signs","Systolic Blood Pressure (mmHg)","103.653279848144","90","120"
"01-022","Clinical Site 01","01","27","F","Black","Treatment A","TRTA","Completed","2015-10-01","2016-09-20","356","Y","1","2015-11-28","59","2016-10-07","373","Y","Y","Visit 2","2","2016-01-21","113","Vital Signs","Temperature (°C)","36.6026730550965","36.6","37"
"01-022","Clinical Site 01","01","27","F","Black","Treatment A","TRTA","Completed","2015-10-01","2016-09-20","356","Y","1","2015-11-28","59","2016-10-07","373","Y","Y","Visit 3","3","2016-03-23","175","Vital Signs","Diastolic Blood Pressure (mmHg)","75.9463246207498","60","80"
"01-022","Clinical Site 01","01","27","F","Black","Treatment A","TRTA","Completed","2015-10-01","2016-09-20","356","Y","1","2015-11-28","59","2016-10-07","373","Y","Y","Visit 3","3","2016-03-23","175","Vital Signs","Heart Rate (beats/minute)","75.8777778947534","50","80"
"01-022","Clinical Site 01","01","27","F","Black","Treatment A","TRTA","Completed","2015-10-01","2016-09-20","356","Y","1","2015-11-28","59","2016-10-07","373","Y","Y","Visit 3","3","2016-03-23","175","Vital Signs","Respiratory Rate (breaths/minute)","","16","20"
"01-022","Clinical Site 01","01","27","F","Black","Treatment A","TRTA","Completed","2015-10-01","2016-09-20","356","Y","1","2015-11-28","59","2016-10-07","373","Y","Y","Visit 3","3","2016-03-23","175","Vital Signs","Systolic Blood Pressure (mmHg)","97.0683855350498","90","120"
"01-022","Clinical Site 01","01","27","F","Black","Treatment A","TRTA","Completed","2015-10-01","2016-09-20","356","Y","1","2015-11-28","59","2016-10-07","373","Y","Y","Visit 3","3","2016-03-23","175","Vital Signs","Temperature (°C)","36.9465931958164","36.6","37"
"01-022","Clinical Site 01","01","27","F","Black","Treatment A","TRTA","Completed","2015-10-01","2016-09-20","356","Y","1","2015-11-28","59","2016-10-07","373","Y","Y","Visit 4","4","2016-05-05","218","Vital Signs","Diastolic Blood Pressure (mmHg)","64.81086092315","60","80"
"01-022","Clinical Site 01","01","27","F","Black","Treatment A","TRTA","Completed","2015-10-01","2016-09-20","356","Y","1","2015-11-28","59","2016-10-07","373","Y","Y","Visit 4","4","2016-05-05","218","Vital Signs","Heart Rate (beats/minute)","58.6400998067342","50","80"
"01-022","Clinical Site 01","01","27","F","Black","Treatment A","TRTA","Completed","2015-10-01","2016-09-20","356","Y","1","2015-11-28","59","2016-10-07","373","Y","Y","Visit 4","4","2016-05-05","218","Vital Signs","Respiratory Rate (breaths/minute)","16.2321657646172","16","20"
"01-022","Clinical Site 01","01","27","F","Black","Treatment A","TRTA","Completed","2015-10-01","2016-09-20","356","Y","1","2015-11-28","59","2016-10-07","373","Y","Y","Visit 4","4","2016-05-05","218","Vital Signs","Systolic Blood Pressure (mmHg)","124.1654759149","90","120"
"01-022","Clinical Site 01","01","27","F","Black","Treatment A","TRTA","Completed","2015-10-01","2016-09-20","356","Y","1","2015-11-28","59","2016-10-07","373","Y","Y","Visit 4","4","2016-05-05","218","Vital Signs","Temperature (°C)","37.0004460358047","36.6","37"
"01-022","Clinical Site 01","01","27","F","Black","Treatment A","TRTA","Completed","2015-10-01","2016-09-20","356","Y","1","2015-11-28","59","2016-10-07","373","Y","Y","Visit 5","5","2016-07-02","276","Vital Signs","Diastolic Blood Pressure (mmHg)","75.0659869396745","60","80"
"01-022","Clinical Site 01","01","27","F","Black","Treatment A","TRTA","Completed","2015-10-01","2016-09-20","356","Y","1","2015-11-28","59","2016-10-07","373","Y","Y","Visit 5","5","2016-07-02","276","Vital Signs","Heart Rate (beats/minute)","78.1360216880036","50","80"
"01-022","Clinical Site 01","01","27","F","Black","Treatment A","TRTA","Completed","2015-10-01","2016-09-20","356","Y","1","2015-11-28","59","2016-10-07","373","Y","Y","Visit 5","5","2016-07-02","276","Vital Signs","Respiratory Rate (breaths/minute)","17.8455580443972","16","20"
"01-022","Clinical Site 01","01","27","F","Black","Treatment A","TRTA","Completed","2015-10-01","2016-09-20","356","Y","1","2015-11-28","59","2016-10-07","373","Y","Y","Visit 5","5","2016-07-02","276","Vital Signs","Systolic Blood Pressure (mmHg)","","90","120"
"01-022","Clinical Site 01","01","27","F","Black","Treatment A","TRTA","Completed","2015-10-01","2016-09-20","356","Y","1","2015-11-28","59","2016-10-07","373","Y","Y","Visit 5","5","2016-07-02","276","Vital Signs","Temperature (°C)","36.6247064746034","36.6","37"
"01-022","Clinical Site 01","01","27","F","Black","Treatment A","TRTA","Completed","2015-10-01","2016-09-20","356","Y","1","2015-11-28","59","2016-10-07","373","Y","Y","Visit 6","6","2016-09-06","342","Vital Signs","Diastolic Blood Pressure (mmHg)","53.4553098924976","60","80"
"01-022","Clinical Site 01","01","27","F","Black","Treatment A","TRTA","Completed","2015-10-01","2016-09-20","356","Y","1","2015-11-28","59","2016-10-07","373","Y","Y","Visit 6","6","2016-09-06","342","Vital Signs","Heart Rate (beats/minute)","53.1342411379841","50","80"
"01-022","Clinical Site 01","01","27","F","Black","Treatment A","TRTA","Completed","2015-10-01","2016-09-20","356","Y","1","2015-11-28","59","2016-10-07","373","Y","Y","Visit 6","6","2016-09-06","342","Vital Signs","Respiratory Rate (breaths/minute)","16.0714328716075","16","20"
"01-022","Clinical Site 01","01","27","F","Black","Treatment A","TRTA","Completed","2015-10-01","2016-09-20","356","Y","1","2015-11-28","59","2016-10-07","373","Y","Y","Visit 6","6","2016-09-06","342","Vital Signs","Systolic Blood Pressure (mmHg)","111.870766870135","90","120"
"01-022","Clinical Site 01","01","27","F","Black","Treatment A","TRTA","Completed","2015-10-01","2016-09-20","356","Y","1","2015-11-28","59","2016-10-07","373","Y","Y","Visit 6","6","2016-09-06","342","Vital Signs","Temperature (°C)","36.6708593381696","36.6","37"
"01-022","Clinical Site 01","01","27","F","Black","Treatment A","TRTA","Completed","2015-10-01","2016-09-20","356","Y","1","2015-11-28","59","2016-10-07","373","Y","Y","End of Study","7","2016-10-07","373","Vital Signs","Diastolic Blood Pressure (mmHg)","67.1185116827757","60","80"
"01-022","Clinical Site 01","01","27","F","Black","Treatment A","TRTA","Completed","2015-10-01","2016-09-20","356","Y","1","2015-11-28","59","2016-10-07","373","Y","Y","End of Study","7","2016-10-07","373","Vital Signs","Heart Rate (beats/minute)","89.8225690611987","50","80"
"01-022","Clinical Site 01","01","27","F","Black","Treatment A","TRTA","Completed","2015-10-01","2016-09-20","356","Y","1","2015-11-28","59","2016-10-07","373","Y","Y","End of Study","7","2016-10-07","373","Vital Signs","Respiratory Rate (breaths/minute)","15.3223928157775","16","20"
"01-022","Clinical Site 01","01","27","F","Black","Treatment A","TRTA","Completed","2015-10-01","2016-09-20","356","Y","1","2015-11-28","59","2016-10-07","373","Y","Y","End of Study","7","2016-10-07","373","Vital Signs","Systolic Blood Pressure (mmHg)","","90","120"
"01-022","Clinical Site 01","01","27","F","Black","Treatment A","TRTA","Completed","2015-10-01","2016-09-20","356","Y","1","2015-11-28","59","2016-10-07","373","Y","Y","End of Study","7","2016-10-07","373","Vital Signs","Temperature (°C)","37.295777993481","36.6","37"
"01-023","Clinical Site 01","01","48","M","Black","Treatment A","TRTA","Ongoing","2015-03-29","2015-09-03","159","Y","1","2015-05-22","55","2016-03-22","360","Y","Y","Screening","0","2015-03-29","1","Vital Signs","Diastolic Blood Pressure (mmHg)","46.3094504855445","60","80"
"01-023","Clinical Site 01","01","48","M","Black","Treatment A","TRTA","Ongoing","2015-03-29","2015-09-03","159","Y","1","2015-05-22","55","2016-03-22","360","Y","Y","Screening","0","2015-03-29","1","Vital Signs","Heart Rate (beats/minute)","61.3374204675145","50","80"
"01-023","Clinical Site 01","01","48","M","Black","Treatment A","TRTA","Ongoing","2015-03-29","2015-09-03","159","Y","1","2015-05-22","55","2016-03-22","360","Y","Y","Screening","0","2015-03-29","1","Vital Signs","Respiratory Rate (breaths/minute)","18.0907732160832","16","20"
"01-023","Clinical Site 01","01","48","M","Black","Treatment A","TRTA","Ongoing","2015-03-29","2015-09-03","159","Y","1","2015-05-22","55","2016-03-22","360","Y","Y","Screening","0","2015-03-29","1","Vital Signs","Systolic Blood Pressure (mmHg)","124.853390625262","90","120"
"01-023","Clinical Site 01","01","48","M","Black","Treatment A","TRTA","Ongoing","2015-03-29","2015-09-03","159","Y","1","2015-05-22","55","2016-03-22","360","Y","Y","Screening","0","2015-03-29","1","Vital Signs","Temperature (°C)","36.6814197290404","36.6","37"
"01-023","Clinical Site 01","01","48","M","Black","Treatment A","TRTA","Ongoing","2015-03-29","2015-09-03","159","Y","1","2015-05-22","55","2016-03-22","360","Y","Y","Visit 1","1","2015-05-22","55","Vital Signs","Diastolic Blood Pressure (mmHg)","","60","80"
"01-023","Clinical Site 01","01","48","M","Black","Treatment A","TRTA","Ongoing","2015-03-29","2015-09-03","159","Y","1","2015-05-22","55","2016-03-22","360","Y","Y","Visit 1","1","2015-05-22","55","Vital Signs","Heart Rate (beats/minute)","77.8469441907861","50","80"
"01-023","Clinical Site 01","01","48","M","Black","Treatment A","TRTA","Ongoing","2015-03-29","2015-09-03","159","Y","1","2015-05-22","55","2016-03-22","360","Y","Y","Visit 1","1","2015-05-22","55","Vital Signs","Respiratory Rate (breaths/minute)","15.4501222944132","16","20"
"01-023","Clinical Site 01","01","48","M","Black","Treatment A","TRTA","Ongoing","2015-03-29","2015-09-03","159","Y","1","2015-05-22","55","2016-03-22","360","Y","Y","Visit 1","1","2015-05-22","55","Vital Signs","Systolic Blood Pressure (mmHg)","108.692524502173","90","120"
"01-023","Clinical Site 01","01","48","M","Black","Treatment A","TRTA","Ongoing","2015-03-29","2015-09-03","159","Y","1","2015-05-22","55","2016-03-22","360","Y","Y","Visit 1","1","2015-05-22","55","Vital Signs","Temperature (°C)","37.0317052873515","36.6","37"
"01-023","Clinical Site 01","01","48","M","Black","Treatment A","TRTA","Ongoing","2015-03-29","2015-09-03","159","Y","1","2015-05-22","55","2016-03-22","360","Y","Y","Visit 2","2","2015-07-14","108","Vital Signs","Diastolic Blood Pressure (mmHg)","57.6399615671457","60","80"
"01-023","Clinical Site 01","01","48","M","Black","Treatment A","TRTA","Ongoing","2015-03-29","2015-09-03","159","Y","1","2015-05-22","55","2016-03-22","360","Y","Y","Visit 2","2","2015-07-14","108","Vital Signs","Heart Rate (beats/minute)","53.4349498936716","50","80"
"01-023","Clinical Site 01","01","48","M","Black","Treatment A","TRTA","Ongoing","2015-03-29","2015-09-03","159","Y","1","2015-05-22","55","2016-03-22","360","Y","Y","Visit 2","2","2015-07-14","108","Vital Signs","Respiratory Rate (breaths/minute)","21.8290210754095","16","20"
"01-023","Clinical Site 01","01","48","M","Black","Treatment A","TRTA","Ongoing","2015-03-29","2015-09-03","159","Y","1","2015-05-22","55","2016-03-22","360","Y","Y","Visit 2","2","2015-07-14","108","Vital Signs","Systolic Blood Pressure (mmHg)","104.712899659193","90","120"
"01-023","Clinical Site 01","01","48","M","Black","Treatment A","TRTA","Ongoing","2015-03-29","2015-09-03","159","Y","1","2015-05-22","55","2016-03-22","360","Y","Y","Visit 2","2","2015-07-14","108","Vital Signs","Temperature (°C)","36.9182646029232","36.6","37"
"01-024","Clinical Site 01","01","24","F","Other/Mixed","Treatment B","TRTB","Ongoing","2015-04-23","2015-10-28","189","Y","1","2015-06-10","49","2016-04-25","369","N","Y","Screening","0","2015-04-23","1","Vital Signs","Diastolic Blood Pressure (mmHg)","84.8765348561969","60","80"
"01-024","Clinical Site 01","01","24","F","Other/Mixed","Treatment B","TRTB","Ongoing","2015-04-23","2015-10-28","189","Y","1","2015-06-10","49","2016-04-25","369","N","Y","Screening","0","2015-04-23","1","Vital Signs","Heart Rate (beats/minute)","61.0339920985116","50","80"
"01-024","Clinical Site 01","01","24","F","Other/Mixed","Treatment B","TRTB","Ongoing","2015-04-23","2015-10-28","189","Y","1","2015-06-10","49","2016-04-25","369","N","Y","Screening","0","2015-04-23","1","Vital Signs","Respiratory Rate (breaths/minute)","15.963872864891","16","20"
"01-024","Clinical Site 01","01","24","F","Other/Mixed","Treatment B","TRTB","Ongoing","2015-04-23","2015-10-28","189","Y","1","2015-06-10","49","2016-04-25","369","N","Y","Screening","0","2015-04-23","1","Vital Signs","Systolic Blood Pressure (mmHg)","96.5719029338585","90","120"
"01-024","Clinical Site 01","01","24","F","Other/Mixed","Treatment B","TRTB","Ongoing","2015-04-23","2015-10-28","189","Y","1","2015-06-10","49","2016-04-25","369","N","Y","Screening","0","2015-04-23","1","Vital Signs","Temperature (°C)","36.8131983214668","36.6","37"
"01-024","Clinical Site 01","01","24","F","Other/Mixed","Treatment B","TRTB","Ongoing","2015-04-23","2015-10-28","189","Y","1","2015-06-10","49","2016-04-25","369","N","Y","Visit 1","1","2015-06-10","49","Vital Signs","Diastolic Blood Pressure (mmHg)","","60","80"
"01-024","Clinical Site 01","01","24","F","Other/Mixed","Treatment B","TRTB","Ongoing","2015-04-23","2015-10-28","189","Y","1","2015-06-10","49","2016-04-25","369","N","Y","Visit 1","1","2015-06-10","49","Vital Signs","Heart Rate (beats/minute)","80.4607543700143","50","80"
"01-024","Clinical Site 01","01","24","F","Other/Mixed","Treatment B","TRTB","Ongoing","2015-04-23","2015-10-28","189","Y","1","2015-06-10","49","2016-04-25","369","N","Y","Visit 1","1","2015-06-10","49","Vital Signs","Respiratory Rate (breaths/minute)","20.0183032617693","16","20"
"01-024","Clinical Site 01","01","24","F","Other/Mixed","Treatment B","TRTB","Ongoing","2015-04-23","2015-10-28","189","Y","1","2015-06-10","49","2016-04-25","369","N","Y","Visit 1","1","2015-06-10","49","Vital Signs","Systolic Blood Pressure (mmHg)","119.876110157485","90","120"
"01-024","Clinical Site 01","01","24","F","Other/Mixed","Treatment B","TRTB","Ongoing","2015-04-23","2015-10-28","189","Y","1","2015-06-10","49","2016-04-25","369","N","Y","Visit 1","1","2015-06-10","49","Vital Signs","Temperature (°C)","36.6455087658155","36.6","37"
"01-024","Clinical Site 01","01","24","F","Other/Mixed","Treatment B","TRTB","Ongoing","2015-04-23","2015-10-28","189","Y","1","2015-06-10","49","2016-04-25","369","N","Y","Visit 2","2","2015-08-09","109","Vital Signs","Diastolic Blood Pressure (mmHg)","40.8149153498489","60","80"
"01-024","Clinical Site 01","01","24","F","Other/Mixed","Treatment B","TRTB","Ongoing","2015-04-23","2015-10-28","189","Y","1","2015-06-10","49","2016-04-25","369","N","Y","Visit 2","2","2015-08-09","109","Vital Signs","Heart Rate (beats/minute)","54.7712076636504","50","80"
"01-024","Clinical Site 01","01","24","F","Other/Mixed","Treatment B","TRTB","Ongoing","2015-04-23","2015-10-28","189","Y","1","2015-06-10","49","2016-04-25","369","N","Y","Visit 2","2","2015-08-09","109","Vital Signs","Respiratory Rate (breaths/minute)","18.7601451290191","16","20"
"01-024","Clinical Site 01","01","24","F","Other/Mixed","Treatment B","TRTB","Ongoing","2015-04-23","2015-10-28","189","Y","1","2015-06-10","49","2016-04-25","369","N","Y","Visit 2","2","2015-08-09","109","Vital Signs","Systolic Blood Pressure (mmHg)","86.3943963988473","90","120"
"01-024","Clinical Site 01","01","24","F","Other/Mixed","Treatment B","TRTB","Ongoing","2015-04-23","2015-10-28","189","Y","1","2015-06-10","49","2016-04-25","369","N","Y","Visit 2","2","2015-08-09","109","Vital Signs","Temperature (°C)","36.9802768675061","36.6","37"
"01-025","Clinical Site 01","01","21","M","White","Placebo","PLACEBO","Ongoing","2015-06-22","2015-09-25","96","Y","1","2015-08-15","55","2016-06-23","368","Y","Y","Screening","0","2015-06-22","1","Vital Signs","Diastolic Blood Pressure (mmHg)","58.9834553116034","60","80"
"01-025","Clinical Site 01","01","21","M","White","Placebo","PLACEBO","Ongoing","2015-06-22","2015-09-25","96","Y","1","2015-08-15","55","2016-06-23","368","Y","Y","Screening","0","2015-06-22","1","Vital Signs","Heart Rate (beats/minute)","72.9229654944211","50","80"
"01-025","Clinical Site 01","01","21","M","White","Placebo","PLACEBO","Ongoing","2015-06-22","2015-09-25","96","Y","1","2015-08-15","55","2016-06-23","368","Y","Y","Screening","0","2015-06-22","1","Vital Signs","Respiratory Rate (breaths/minute)","19.2201554568137","16","20"
"01-025","Clinical Site 01","01","21","M","White","Placebo","PLACEBO","Ongoing","2015-06-22","2015-09-25","96","Y","1","2015-08-15","55","2016-06-23","368","Y","Y","Screening","0","2015-06-22","1","Vital Signs","Systolic Blood Pressure (mmHg)","78.9938035792794","90","120"
"01-025","Clinical Site 01","01","21","M","White","Placebo","PLACEBO","Ongoing","2015-06-22","2015-09-25","96","Y","1","2015-08-15","55","2016-06-23","368","Y","Y","Screening","0","2015-06-22","1","Vital Signs","Temperature (°C)","37.0347546802342","36.6","37"
"01-025","Clinical Site 01","01","21","M","White","Placebo","PLACEBO","Ongoing","2015-06-22","2015-09-25","96","Y","1","2015-08-15","55","2016-06-23","368","Y","Y","Visit 1","1","2015-08-15","55","Vital Signs","Diastolic Blood Pressure (mmHg)","","60","80"
"01-025","Clinical Site 01","01","21","M","White","Placebo","PLACEBO","Ongoing","2015-06-22","2015-09-25","96","Y","1","2015-08-15","55","2016-06-23","368","Y","Y","Visit 1","1","2015-08-15","55","Vital Signs","Heart Rate (beats/minute)","42.0407858472698","50","80"
"01-025","Clinical Site 01","01","21","M","White","Placebo","PLACEBO","Ongoing","2015-06-22","2015-09-25","96","Y","1","2015-08-15","55","2016-06-23","368","Y","Y","Visit 1","1","2015-08-15","55","Vital Signs","Respiratory Rate (breaths/minute)","17.5985607418236","16","20"
"01-025","Clinical Site 01","01","21","M","White","Placebo","PLACEBO","Ongoing","2015-06-22","2015-09-25","96","Y","1","2015-08-15","55","2016-06-23","368","Y","Y","Visit 1","1","2015-08-15","55","Vital Signs","Systolic Blood Pressure (mmHg)","111.898085572383","90","120"
"01-025","Clinical Site 01","01","21","M","White","Placebo","PLACEBO","Ongoing","2015-06-22","2015-09-25","96","Y","1","2015-08-15","55","2016-06-23","368","Y","Y","Visit 1","1","2015-08-15","55","Vital Signs","Temperature (°C)","36.9888728681288","36.6","37"
"01-026","Clinical Site 01","01","25","F","White","Treatment A","TRTA","Completed","2015-02-19","2016-02-28","375","Y","1","2015-04-09","50","2016-02-25","372","Y","Y","Screening","0","2015-02-19","1","Vital Signs","Diastolic Blood Pressure (mmHg)","73.8368628916963","60","80"
"01-026","Clinical Site 01","01","25","F","White","Treatment A","TRTA","Completed","2015-02-19","2016-02-28","375","Y","1","2015-04-09","50","2016-02-25","372","Y","Y","Screening","0","2015-02-19","1","Vital Signs","Heart Rate (beats/minute)","64.2092948580069","50","80"
"01-026","Clinical Site 01","01","25","F","White","Treatment A","TRTA","Completed","2015-02-19","2016-02-28","375","Y","1","2015-04-09","50","2016-02-25","372","Y","Y","Screening","0","2015-02-19","1","Vital Signs","Respiratory Rate (breaths/minute)","21.5819575221692","16","20"
"01-026","Clinical Site 01","01","25","F","White","Treatment A","TRTA","Completed","2015-02-19","2016-02-28","375","Y","1","2015-04-09","50","2016-02-25","372","Y","Y","Screening","0","2015-02-19","1","Vital Signs","Systolic Blood Pressure (mmHg)","104.90560219177","90","120"
"01-026","Clinical Site 01","01","25","F","White","Treatment A","TRTA","Completed","2015-02-19","2016-02-28","375","Y","1","2015-04-09","50","2016-02-25","372","Y","Y","Screening","0","2015-02-19","1","Vital Signs","Temperature (°C)","36.4853245395617","36.6","37"
"01-026","Clinical Site 01","01","25","F","White","Treatment A","TRTA","Completed","2015-02-19","2016-02-28","375","Y","1","2015-04-09","50","2016-02-25","372","Y","Y","Visit 1","1","2015-04-09","50","Vital Signs","Diastolic Blood Pressure (mmHg)","","60","80"
"01-026","Clinical Site 01","01","25","F","White","Treatment A","TRTA","Completed","2015-02-19","2016-02-28","375","Y","1","2015-04-09","50","2016-02-25","372","Y","Y","Visit 1","1","2015-04-09","50","Vital Signs","Heart Rate (beats/minute)","56.6788772948486","50","80"
"01-026","Clinical Site 01","01","25","F","White","Treatment A","TRTA","Completed","2015-02-19","2016-02-28","375","Y","1","2015-04-09","50","2016-02-25","372","Y","Y","Visit 1","1","2015-04-09","50","Vital Signs","Respiratory Rate (breaths/minute)","20.9241524764192","16","20"
"01-026","Clinical Site 01","01","25","F","White","Treatment A","TRTA","Completed","2015-02-19","2016-02-28","375","Y","1","2015-04-09","50","2016-02-25","372","Y","Y","Visit 1","1","2015-04-09","50","Vital Signs","Systolic Blood Pressure (mmHg)","93.7935874479927","90","120"
"01-026","Clinical Site 01","01","25","F","White","Treatment A","TRTA","Completed","2015-02-19","2016-02-28","375","Y","1","2015-04-09","50","2016-02-25","372","Y","Y","Visit 1","1","2015-04-09","50","Vital Signs","Temperature (°C)","36.8062459435357","36.6","37"
"01-026","Clinical Site 01","01","25","F","White","Treatment A","TRTA","Completed","2015-02-19","2016-02-28","375","Y","1","2015-04-09","50","2016-02-25","372","Y","Y","Visit 2","2","2015-06-10","112","Vital Signs","Diastolic Blood Pressure (mmHg)","70.1799361759144","60","80"
"01-026","Clinical Site 01","01","25","F","White","Treatment A","TRTA","Completed","2015-02-19","2016-02-28","375","Y","1","2015-04-09","50","2016-02-25","372","Y","Y","Visit 2","2","2015-06-10","112","Vital Signs","Heart Rate (beats/minute)","52.7521073102317","50","80"
"01-026","Clinical Site 01","01","25","F","White","Treatment A","TRTA","Completed","2015-02-19","2016-02-28","375","Y","1","2015-04-09","50","2016-02-25","372","Y","Y","Visit 2","2","2015-06-10","112","Vital Signs","Respiratory Rate (breaths/minute)","17.3249332378392","16","20"
"01-026","Clinical Site 01","01","25","F","White","Treatment A","TRTA","Completed","2015-02-19","2016-02-28","375","Y","1","2015-04-09","50","2016-02-25","372","Y","Y","Visit 2","2","2015-06-10","112","Vital Signs","Systolic Blood Pressure (mmHg)","107.84574357055","90","120"
"01-026","Clinical Site 01","01","25","F","White","Treatment A","TRTA","Completed","2015-02-19","2016-02-28","375","Y","1","2015-04-09","50","2016-02-25","372","Y","Y","Visit 2","2","2015-06-10","112","Vital Signs","Temperature (°C)","36.8148661976426","36.6","37"
"01-026","Clinical Site 01","01","25","F","White","Treatment A","TRTA","Completed","2015-02-19","2016-02-28","375","Y","1","2015-04-09","50","2016-02-25","372","Y","Y","Visit 4","4","2015-09-27","221","Vital Signs","Diastolic Blood Pressure (mmHg)","74.315086809284","60","80"
"01-026","Clinical Site 01","01","25","F","White","Treatment A","TRTA","Completed","2015-02-19","2016-02-28","375","Y","1","2015-04-09","50","2016-02-25","372","Y","Y","Visit 4","4","2015-09-27","221","Vital Signs","Heart Rate (beats/minute)","74.5019825042593","50","80"
"01-026","Clinical Site 01","01","25","F","White","Treatment A","TRTA","Completed","2015-02-19","2016-02-28","375","Y","1","2015-04-09","50","2016-02-25","372","Y","Y","Visit 4","4","2015-09-27","221","Vital Signs","Respiratory Rate (breaths/minute)","14.8587640061044","16","20"
"01-026","Clinical Site 01","01","25","F","White","Treatment A","TRTA","Completed","2015-02-19","2016-02-28","375","Y","1","2015-04-09","50","2016-02-25","372","Y","Y","Visit 4","4","2015-09-27","221","Vital Signs","Systolic Blood Pressure (mmHg)","102.442924808414","90","120"
"01-026","Clinical Site 01","01","25","F","White","Treatment A","TRTA","Completed","2015-02-19","2016-02-28","375","Y","1","2015-04-09","50","2016-02-25","372","Y","Y","Visit 4","4","2015-09-27","221","Vital Signs","Temperature (°C)","36.884462171088","36.6","37"
"01-026","Clinical Site 01","01","25","F","White","Treatment A","TRTA","Completed","2015-02-19","2016-02-28","375","Y","1","2015-04-09","50","2016-02-25","372","Y","Y","Visit 5","5","2015-11-20","275","Vital Signs","Diastolic Blood Pressure (mmHg)","57.4671147171301","60","80"
"01-026","Clinical Site 01","01","25","F","White","Treatment A","TRTA","Completed","2015-02-19","2016-02-28","375","Y","1","2015-04-09","50","2016-02-25","372","Y","Y","Visit 5","5","2015-11-20","275","Vital Signs","Heart Rate (beats/minute)","80.5332502290207","50","80"
"01-026","Clinical Site 01","01","25","F","White","Treatment A","TRTA","Completed","2015-02-19","2016-02-28","375","Y","1","2015-04-09","50","2016-02-25","372","Y","Y","Visit 5","5","2015-11-20","275","Vital Signs","Respiratory Rate (breaths/minute)","24.6981071727468","16","20"
"01-026","Clinical Site 01","01","25","F","White","Treatment A","TRTA","Completed","2015-02-19","2016-02-28","375","Y","1","2015-04-09","50","2016-02-25","372","Y","Y","Visit 5","5","2015-11-20","275","Vital Signs","Systolic Blood Pressure (mmHg)","","90","120"
"01-026","Clinical Site 01","01","25","F","White","Treatment A","TRTA","Completed","2015-02-19","2016-02-28","375","Y","1","2015-04-09","50","2016-02-25","372","Y","Y","Visit 5","5","2015-11-20","275","Vital Signs","Temperature (°C)","36.9132640476067","36.6","37"
"01-026","Clinical Site 01","01","25","F","White","Treatment A","TRTA","Completed","2015-02-19","2016-02-28","375","Y","1","2015-04-09","50","2016-02-25","372","Y","Y","Visit 6","6","2016-01-14","330","Vital Signs","Diastolic Blood Pressure (mmHg)","69.5820817782363","60","80"
"01-026","Clinical Site 01","01","25","F","White","Treatment A","TRTA","Completed","2015-02-19","2016-02-28","375","Y","1","2015-04-09","50","2016-02-25","372","Y","Y","Visit 6","6","2016-01-14","330","Vital Signs","Heart Rate (beats/minute)","60.45419650004","50","80"
"01-026","Clinical Site 01","01","25","F","White","Treatment A","TRTA","Completed","2015-02-19","2016-02-28","375","Y","1","2015-04-09","50","2016-02-25","372","Y","Y","Visit 6","6","2016-01-14","330","Vital Signs","Respiratory Rate (breaths/minute)","17.8053162580679","16","20"
"01-026","Clinical Site 01","01","25","F","White","Treatment A","TRTA","Completed","2015-02-19","2016-02-28","375","Y","1","2015-04-09","50","2016-02-25","372","Y","Y","Visit 6","6","2016-01-14","330","Vital Signs","Systolic Blood Pressure (mmHg)","113.671582464601","90","120"
"01-026","Clinical Site 01","01","25","F","White","Treatment A","TRTA","Completed","2015-02-19","2016-02-28","375","Y","1","2015-04-09","50","2016-02-25","372","Y","Y","Visit 6","6","2016-01-14","330","Vital Signs","Temperature (°C)","","36.6","37"
"01-026","Clinical Site 01","01","25","F","White","Treatment A","TRTA","Completed","2015-02-19","2016-02-28","375","Y","1","2015-04-09","50","2016-02-25","372","Y","Y","End of Study","7","2016-02-25","372","Vital Signs","Diastolic Blood Pressure (mmHg)","46.3607436824282","60","80"
"01-026","Clinical Site 01","01","25","F","White","Treatment A","TRTA","Completed","2015-02-19","2016-02-28","375","Y","1","2015-04-09","50","2016-02-25","372","Y","Y","End of Study","7","2016-02-25","372","Vital Signs","Heart Rate (beats/minute)","74.8723032488573","50","80"
"01-026","Clinical Site 01","01","25","F","White","Treatment A","TRTA","Completed","2015-02-19","2016-02-28","375","Y","1","2015-04-09","50","2016-02-25","372","Y","Y","End of Study","7","2016-02-25","372","Vital Signs","Respiratory Rate (breaths/minute)","15.2289636967107","16","20"
"01-026","Clinical Site 01","01","25","F","White","Treatment A","TRTA","Completed","2015-02-19","2016-02-28","375","Y","1","2015-04-09","50","2016-02-25","372","Y","Y","End of Study","7","2016-02-25","372","Vital Signs","Systolic Blood Pressure (mmHg)","","90","120"
"01-026","Clinical Site 01","01","25","F","White","Treatment A","TRTA","Completed","2015-02-19","2016-02-28","375","Y","1","2015-04-09","50","2016-02-25","372","Y","Y","End of Study","7","2016-02-25","372","Vital Signs","Temperature (°C)","37.2579096480619","36.6","37"
"01-027","Clinical Site 01","01","40","F","Other/Mixed","Treatment B","TRTB","Ongoing","2015-06-01","2015-10-24","146","Y","1","2015-07-26","56","2016-05-25","360","Y","Y","Screening","0","2015-06-01","1","Vital Signs","Diastolic Blood Pressure (mmHg)","61.5534811082692","60","80"
"01-027","Clinical Site 01","01","40","F","Other/Mixed","Treatment B","TRTB","Ongoing","2015-06-01","2015-10-24","146","Y","1","2015-07-26","56","2016-05-25","360","Y","Y","Screening","0","2015-06-01","1","Vital Signs","Heart Rate (beats/minute)","52.9513458028971","50","80"
"01-027","Clinical Site 01","01","40","F","Other/Mixed","Treatment B","TRTB","Ongoing","2015-06-01","2015-10-24","146","Y","1","2015-07-26","56","2016-05-25","360","Y","Y","Screening","0","2015-06-01","1","Vital Signs","Respiratory Rate (breaths/minute)","16.4518783111618","16","20"
"01-027","Clinical Site 01","01","40","F","Other/Mixed","Treatment B","TRTB","Ongoing","2015-06-01","2015-10-24","146","Y","1","2015-07-26","56","2016-05-25","360","Y","Y","Screening","0","2015-06-01","1","Vital Signs","Systolic Blood Pressure (mmHg)","94.0702452256999","90","120"
"01-027","Clinical Site 01","01","40","F","Other/Mixed","Treatment B","TRTB","Ongoing","2015-06-01","2015-10-24","146","Y","1","2015-07-26","56","2016-05-25","360","Y","Y","Screening","0","2015-06-01","1","Vital Signs","Temperature (°C)","36.7922097984333","36.6","37"
"01-027","Clinical Site 01","01","40","F","Other/Mixed","Treatment B","TRTB","Ongoing","2015-06-01","2015-10-24","146","Y","1","2015-07-26","56","2016-05-25","360","Y","Y","Visit 1","1","2015-07-26","56","Vital Signs","Diastolic Blood Pressure (mmHg)","","60","80"
"01-027","Clinical Site 01","01","40","F","Other/Mixed","Treatment B","TRTB","Ongoing","2015-06-01","2015-10-24","146","Y","1","2015-07-26","56","2016-05-25","360","Y","Y","Visit 1","1","2015-07-26","56","Vital Signs","Heart Rate (beats/minute)","50.63656131964","50","80"
"01-027","Clinical Site 01","01","40","F","Other/Mixed","Treatment B","TRTB","Ongoing","2015-06-01","2015-10-24","146","Y","1","2015-07-26","56","2016-05-25","360","Y","Y","Visit 1","1","2015-07-26","56","Vital Signs","Respiratory Rate (breaths/minute)","19.0828000710589","16","20"
"01-027","Clinical Site 01","01","40","F","Other/Mixed","Treatment B","TRTB","Ongoing","2015-06-01","2015-10-24","146","Y","1","2015-07-26","56","2016-05-25","360","Y","Y","Visit 1","1","2015-07-26","56","Vital Signs","Systolic Blood Pressure (mmHg)","102.250013462954","90","120"
"01-027","Clinical Site 01","01","40","F","Other/Mixed","Treatment B","TRTB","Ongoing","2015-06-01","2015-10-24","146","Y","1","2015-07-26","56","2016-05-25","360","Y","Y","Visit 1","1","2015-07-26","56","Vital Signs","Temperature (°C)","36.953555784539","36.6","37"
"01-027","Clinical Site 01","01","40","F","Other/Mixed","Treatment B","TRTB","Ongoing","2015-06-01","2015-10-24","146","Y","1","2015-07-26","56","2016-05-25","360","Y","Y","Visit 2","2","2015-09-15","107","Vital Signs","Diastolic Blood Pressure (mmHg)","54.883621836356","60","80"
"01-027","Clinical Site 01","01","40","F","Other/Mixed","Treatment B","TRTB","Ongoing","2015-06-01","2015-10-24","146","Y","1","2015-07-26","56","2016-05-25","360","Y","Y","Visit 2","2","2015-09-15","107","Vital Signs","Heart Rate (beats/minute)","64.6226694470663","50","80"
"01-027","Clinical Site 01","01","40","F","Other/Mixed","Treatment B","TRTB","Ongoing","2015-06-01","2015-10-24","146","Y","1","2015-07-26","56","2016-05-25","360","Y","Y","Visit 2","2","2015-09-15","107","Vital Signs","Respiratory Rate (breaths/minute)","14.9892246791111","16","20"
"01-027","Clinical Site 01","01","40","F","Other/Mixed","Treatment B","TRTB","Ongoing","2015-06-01","2015-10-24","146","Y","1","2015-07-26","56","2016-05-25","360","Y","Y","Visit 2","2","2015-09-15","107","Vital Signs","Systolic Blood Pressure (mmHg)","131.237316625588","90","120"
"01-027","Clinical Site 01","01","40","F","Other/Mixed","Treatment B","TRTB","Ongoing","2015-06-01","2015-10-24","146","Y","1","2015-07-26","56","2016-05-25","360","Y","Y","Visit 2","2","2015-09-15","107","Vital Signs","Temperature (°C)","36.6895562835773","36.6","37"
"01-028","Clinical Site 01","01","21","F","Hispanic","Treatment B","TRTB","Completed","2015-11-12","2016-11-04","359","Y","1","2016-01-02","52","2016-11-04","359","Y","Y","Screening","0","2015-11-12","1","Vital Signs","Diastolic Blood Pressure (mmHg)","75.309441645474","60","80"
"01-028","Clinical Site 01","01","21","F","Hispanic","Treatment B","TRTB","Completed","2015-11-12","2016-11-04","359","Y","1","2016-01-02","52","2016-11-04","359","Y","Y","Screening","0","2015-11-12","1","Vital Signs","Heart Rate (beats/minute)","61.4302226502851","50","80"
"01-028","Clinical Site 01","01","21","F","Hispanic","Treatment B","TRTB","Completed","2015-11-12","2016-11-04","359","Y","1","2016-01-02","52","2016-11-04","359","Y","Y","Screening","0","2015-11-12","1","Vital Signs","Respiratory Rate (breaths/minute)","","16","20"
"01-028","Clinical Site 01","01","21","F","Hispanic","Treatment B","TRTB","Completed","2015-11-12","2016-11-04","359","Y","1","2016-01-02","52","2016-11-04","359","Y","Y","Screening","0","2015-11-12","1","Vital Signs","Systolic Blood Pressure (mmHg)","81.8110988325125","90","120"
"01-028","Clinical Site 01","01","21","F","Hispanic","Treatment B","TRTB","Completed","2015-11-12","2016-11-04","359","Y","1","2016-01-02","52","2016-11-04","359","Y","Y","Screening","0","2015-11-12","1","Vital Signs","Temperature (°C)","36.9111144302532","36.6","37"
"01-028","Clinical Site 01","01","21","F","Hispanic","Treatment B","TRTB","Completed","2015-11-12","2016-11-04","359","Y","1","2016-01-02","52","2016-11-04","359","Y","Y","Visit 1","1","2016-01-02","52","Vital Signs","Diastolic Blood Pressure (mmHg)","","60","80"
"01-028","Clinical Site 01","01","21","F","Hispanic","Treatment B","TRTB","Completed","2015-11-12","2016-11-04","359","Y","1","2016-01-02","52","2016-11-04","359","Y","Y","Visit 1","1","2016-01-02","52","Vital Signs","Heart Rate (beats/minute)","45.442643954095","50","80"
"01-028","Clinical Site 01","01","21","F","Hispanic","Treatment B","TRTB","Completed","2015-11-12","2016-11-04","359","Y","1","2016-01-02","52","2016-11-04","359","Y","Y","Visit 1","1","2016-01-02","52","Vital Signs","Respiratory Rate (breaths/minute)","16.5015086151909","16","20"
"01-028","Clinical Site 01","01","21","F","Hispanic","Treatment B","TRTB","Completed","2015-11-12","2016-11-04","359","Y","1","2016-01-02","52","2016-11-04","359","Y","Y","Visit 1","1","2016-01-02","52","Vital Signs","Systolic Blood Pressure (mmHg)","120.74158344674","90","120"
"01-028","Clinical Site 01","01","21","F","Hispanic","Treatment B","TRTB","Completed","2015-11-12","2016-11-04","359","Y","1","2016-01-02","52","2016-11-04","359","Y","Y","Visit 1","1","2016-01-02","52","Vital Signs","Temperature (°C)","36.6655111551075","36.6","37"
"01-028","Clinical Site 01","01","21","F","Hispanic","Treatment B","TRTB","Completed","2015-11-12","2016-11-04","359","Y","1","2016-01-02","52","2016-11-04","359","Y","Y","Unscheduled 1.1","1.1","2016-01-10","60","Vital Signs","Diastolic Blood Pressure (mmHg)","52.5873230681592","60","80"
"01-028","Clinical Site 01","01","21","F","Hispanic","Treatment B","TRTB","Completed","2015-11-12","2016-11-04","359","Y","1","2016-01-02","52","2016-11-04","359","Y","Y","Unscheduled 1.1","1.1","2016-01-10","60","Vital Signs","Heart Rate (beats/minute)","59.7905496859549","50","80"
"01-028","Clinical Site 01","01","21","F","Hispanic","Treatment B","TRTB","Completed","2015-11-12","2016-11-04","359","Y","1","2016-01-02","52","2016-11-04","359","Y","Y","Unscheduled 1.1","1.1","2016-01-10","60","Vital Signs","Respiratory Rate (breaths/minute)","19.7033020218165","16","20"
"01-028","Clinical Site 01","01","21","F","Hispanic","Treatment B","TRTB","Completed","2015-11-12","2016-11-04","359","Y","1","2016-01-02","52","2016-11-04","359","Y","Y","Unscheduled 1.1","1.1","2016-01-10","60","Vital Signs","Systolic Blood Pressure (mmHg)","94.6002981208123","90","120"
"01-028","Clinical Site 01","01","21","F","Hispanic","Treatment B","TRTB","Completed","2015-11-12","2016-11-04","359","Y","1","2016-01-02","52","2016-11-04","359","Y","Y","Unscheduled 1.1","1.1","2016-01-10","60","Vital Signs","Temperature (°C)","36.6135734152936","36.6","37"
"01-028","Clinical Site 01","01","21","F","Hispanic","Treatment B","TRTB","Completed","2015-11-12","2016-11-04","359","Y","1","2016-01-02","52","2016-11-04","359","Y","Y","Visit 2","2","2016-03-06","116","Vital Signs","Diastolic Blood Pressure (mmHg)","58.6700916717992","60","80"
"01-028","Clinical Site 01","01","21","F","Hispanic","Treatment B","TRTB","Completed","2015-11-12","2016-11-04","359","Y","1","2016-01-02","52","2016-11-04","359","Y","Y","Visit 2","2","2016-03-06","116","Vital Signs","Heart Rate (beats/minute)","67.0406106335741","50","80"
"01-028","Clinical Site 01","01","21","F","Hispanic","Treatment B","TRTB","Completed","2015-11-12","2016-11-04","359","Y","1","2016-01-02","52","2016-11-04","359","Y","Y","Visit 2","2","2016-03-06","116","Vital Signs","Respiratory Rate (breaths/minute)","13.961475673778","16","20"
"01-028","Clinical Site 01","01","21","F","Hispanic","Treatment B","TRTB","Completed","2015-11-12","2016-11-04","359","Y","1","2016-01-02","52","2016-11-04","359","Y","Y","Visit 2","2","2016-03-06","116","Vital Signs","Systolic Blood Pressure (mmHg)","","90","120"
"01-028","Clinical Site 01","01","21","F","Hispanic","Treatment B","TRTB","Completed","2015-11-12","2016-11-04","359","Y","1","2016-01-02","52","2016-11-04","359","Y","Y","Visit 2","2","2016-03-06","116","Vital Signs","Temperature (°C)","36.8862247759809","36.6","37"
"01-028","Clinical Site 01","01","21","F","Hispanic","Treatment B","TRTB","Completed","2015-11-12","2016-11-04","359","Y","1","2016-01-02","52","2016-11-04","359","Y","Y","Visit 3","3","2016-04-25","166","Vital Signs","Diastolic Blood Pressure (mmHg)","84.876994567807","60","80"
"01-028","Clinical Site 01","01","21","F","Hispanic","Treatment B","TRTB","Completed","2015-11-12","2016-11-04","359","Y","1","2016-01-02","52","2016-11-04","359","Y","Y","Visit 3","3","2016-04-25","166","Vital Signs","Heart Rate (beats/minute)","61.872537888894","50","80"
"01-028","Clinical Site 01","01","21","F","Hispanic","Treatment B","TRTB","Completed","2015-11-12","2016-11-04","359","Y","1","2016-01-02","52","2016-11-04","359","Y","Y","Visit 3","3","2016-04-25","166","Vital Signs","Respiratory Rate (breaths/minute)","","16","20"
"01-028","Clinical Site 01","01","21","F","Hispanic","Treatment B","TRTB","Completed","2015-11-12","2016-11-04","359","Y","1","2016-01-02","52","2016-11-04","359","Y","Y","Visit 3","3","2016-04-25","166","Vital Signs","Systolic Blood Pressure (mmHg)","132.286617481733","90","120"
"01-028","Clinical Site 01","01","21","F","Hispanic","Treatment B","TRTB","Completed","2015-11-12","2016-11-04","359","Y","1","2016-01-02","52","2016-11-04","359","Y","Y","Visit 3","3","2016-04-25","166","Vital Signs","Temperature (°C)","36.6150862203632","36.6","37"
"01-028","Clinical Site 01","01","21","F","Hispanic","Treatment B","TRTB","Completed","2015-11-12","2016-11-04","359","Y","1","2016-01-02","52","2016-11-04","359","Y","Y","Visit 4","4","2016-06-21","223","Vital Signs","Diastolic Blood Pressure (mmHg)","67.7400049484525","60","80"
"01-028","Clinical Site 01","01","21","F","Hispanic","Treatment B","TRTB","Completed","2015-11-12","2016-11-04","359","Y","1","2016-01-02","52","2016-11-04","359","Y","Y","Visit 4","4","2016-06-21","223","Vital Signs","Heart Rate (beats/minute)","54.6497581156525","50","80"
"01-028","Clinical Site 01","01","21","F","Hispanic","Treatment B","TRTB","Completed","2015-11-12","2016-11-04","359","Y","1","2016-01-02","52","2016-11-04","359","Y","Y","Visit 4","4","2016-06-21","223","Vital Signs","Respiratory Rate (breaths/minute)","14.7066681453849","16","20"
"01-028","Clinical Site 01","01","21","F","Hispanic","Treatment B","TRTB","Completed","2015-11-12","2016-11-04","359","Y","1","2016-01-02","52","2016-11-04","359","Y","Y","Visit 4","4","2016-06-21","223","Vital Signs","Systolic Blood Pressure (mmHg)","105.868904238966","90","120"
"01-028","Clinical Site 01","01","21","F","Hispanic","Treatment B","TRTB","Completed","2015-11-12","2016-11-04","359","Y","1","2016-01-02","52","2016-11-04","359","Y","Y","Visit 4","4","2016-06-21","223","Vital Signs","Temperature (°C)","36.81791421366","36.6","37"
"01-028","Clinical Site 01","01","21","F","Hispanic","Treatment B","TRTB","Completed","2015-11-12","2016-11-04","359","Y","1","2016-01-02","52","2016-11-04","359","Y","Y","Visit 5","5","2016-08-19","282","Vital Signs","Diastolic Blood Pressure (mmHg)","67.2111889967312","60","80"
"01-028","Clinical Site 01","01","21","F","Hispanic","Treatment B","TRTB","Completed","2015-11-12","2016-11-04","359","Y","1","2016-01-02","52","2016-11-04","359","Y","Y","Visit 5","5","2016-08-19","282","Vital Signs","Heart Rate (beats/minute)","66.3653162912065","50","80"
"01-028","Clinical Site 01","01","21","F","Hispanic","Treatment B","TRTB","Completed","2015-11-12","2016-11-04","359","Y","1","2016-01-02","52","2016-11-04","359","Y","Y","Visit 5","5","2016-08-19","282","Vital Signs","Respiratory Rate (breaths/minute)","21.7782894389796","16","20"
"01-028","Clinical Site 01","01","21","F","Hispanic","Treatment B","TRTB","Completed","2015-11-12","2016-11-04","359","Y","1","2016-01-02","52","2016-11-04","359","Y","Y","Visit 5","5","2016-08-19","282","Vital Signs","Systolic Blood Pressure (mmHg)","","90","120"
"01-028","Clinical Site 01","01","21","F","Hispanic","Treatment B","TRTB","Completed","2015-11-12","2016-11-04","359","Y","1","2016-01-02","52","2016-11-04","359","Y","Y","Visit 5","5","2016-08-19","282","Vital Signs","Temperature (°C)","36.8536310268712","36.6","37"
"01-028","Clinical Site 01","01","21","F","Hispanic","Treatment B","TRTB","Completed","2015-11-12","2016-11-04","359","Y","1","2016-01-02","52","2016-11-04","359","Y","Y","Visit 6","6","2016-10-09","333","Vital Signs","Diastolic Blood Pressure (mmHg)","62.9103914929833","60","80"
"01-028","Clinical Site 01","01","21","F","Hispanic","Treatment B","TRTB","Completed","2015-11-12","2016-11-04","359","Y","1","2016-01-02","52","2016-11-04","359","Y","Y","Visit 6","6","2016-10-09","333","Vital Signs","Heart Rate (beats/minute)","51.2381093102753","50","80"
"01-028","Clinical Site 01","01","21","F","Hispanic","Treatment B","TRTB","Completed","2015-11-12","2016-11-04","359","Y","1","2016-01-02","52","2016-11-04","359","Y","Y","Visit 6","6","2016-10-09","333","Vital Signs","Respiratory Rate (breaths/minute)","17.8126932685565","16","20"
"01-028","Clinical Site 01","01","21","F","Hispanic","Treatment B","TRTB","Completed","2015-11-12","2016-11-04","359","Y","1","2016-01-02","52","2016-11-04","359","Y","Y","Visit 6","6","2016-10-09","333","Vital Signs","Systolic Blood Pressure (mmHg)","107.647534738304","90","120"
"01-028","Clinical Site 01","01","21","F","Hispanic","Treatment B","TRTB","Completed","2015-11-12","2016-11-04","359","Y","1","2016-01-02","52","2016-11-04","359","Y","Y","Visit 6","6","2016-10-09","333","Vital Signs","Temperature (°C)","36.9998557625085","36.6","37"
"01-028","Clinical Site 01","01","21","F","Hispanic","Treatment B","TRTB","Completed","2015-11-12","2016-11-04","359","Y","1","2016-01-02","52","2016-11-04","359","Y","Y","Unscheduled 6.1","6.1","2016-10-17","341","Vital Signs","Diastolic Blood Pressure (mmHg)","58.4955162256667","60","80"
"01-028","Clinical Site 01","01","21","F","Hispanic","Treatment B","TRTB","Completed","2015-11-12","2016-11-04","359","Y","1","2016-01-02","52","2016-11-04","359","Y","Y","Unscheduled 6.1","6.1","2016-10-17","341","Vital Signs","Heart Rate (beats/minute)","55.6558854788388","50","80"
"01-028","Clinical Site 01","01","21","F","Hispanic","Treatment B","TRTB","Completed","2015-11-12","2016-11-04","359","Y","1","2016-01-02","52","2016-11-04","359","Y","Y","Unscheduled 6.1","6.1","2016-10-17","341","Vital Signs","Respiratory Rate (breaths/minute)","20.1211990071559","16","20"
"01-028","Clinical Site 01","01","21","F","Hispanic","Treatment B","TRTB","Completed","2015-11-12","2016-11-04","359","Y","1","2016-01-02","52","2016-11-04","359","Y","Y","Unscheduled 6.1","6.1","2016-10-17","341","Vital Signs","Systolic Blood Pressure (mmHg)","152.643283880638","90","120"
"01-028","Clinical Site 01","01","21","F","Hispanic","Treatment B","TRTB","Completed","2015-11-12","2016-11-04","359","Y","1","2016-01-02","52","2016-11-04","359","Y","Y","Unscheduled 6.1","6.1","2016-10-17","341","Vital Signs","Temperature (°C)","36.7782294079995","36.6","37"
"01-028","Clinical Site 01","01","21","F","Hispanic","Treatment B","TRTB","Completed","2015-11-12","2016-11-04","359","Y","1","2016-01-02","52","2016-11-04","359","Y","Y","End of Study","7","2016-11-04","359","Vital Signs","Diastolic Blood Pressure (mmHg)","55.919752461211","60","80"
"01-028","Clinical Site 01","01","21","F","Hispanic","Treatment B","TRTB","Completed","2015-11-12","2016-11-04","359","Y","1","2016-01-02","52","2016-11-04","359","Y","Y","End of Study","7","2016-11-04","359","Vital Signs","Heart Rate (beats/minute)","74.7545868144299","50","80"
"01-028","Clinical Site 01","01","21","F","Hispanic","Treatment B","TRTB","Completed","2015-11-12","2016-11-04","359","Y","1","2016-01-02","52","2016-11-04","359","Y","Y","End of Study","7","2016-11-04","359","Vital Signs","Respiratory Rate (breaths/minute)","17.3268606134367","16","20"
"01-028","Clinical Site 01","01","21","F","Hispanic","Treatment B","TRTB","Completed","2015-11-12","2016-11-04","359","Y","1","2016-01-02","52","2016-11-04","359","Y","Y","End of Study","7","2016-11-04","359","Vital Signs","Systolic Blood Pressure (mmHg)","","90","120"
"01-028","Clinical Site 01","01","21","F","Hispanic","Treatment B","TRTB","Completed","2015-11-12","2016-11-04","359","Y","1","2016-01-02","52","2016-11-04","359","Y","Y","End of Study","7","2016-11-04","359","Vital Signs","Temperature (°C)","36.691063088278","36.6","37"
"01-029","Clinical Site 01","01","50","M","Black","Placebo","PLACEBO","Ongoing","2015-06-10","2016-05-23","349","Y","1","2015-08-06","58","2016-06-16","373","Y","Y","Screening","0","2015-06-10","1","Vital Signs","Diastolic Blood Pressure (mmHg)","56.3686521932303","60","80"
"01-029","Clinical Site 01","01","50","M","Black","Placebo","PLACEBO","Ongoing","2015-06-10","2016-05-23","349","Y","1","2015-08-06","58","2016-06-16","373","Y","Y","Screening","0","2015-06-10","1","Vital Signs","Heart Rate (beats/minute)","66.9763083045368","50","80"
"01-029","Clinical Site 01","01","50","M","Black","Placebo","PLACEBO","Ongoing","2015-06-10","2016-05-23","349","Y","1","2015-08-06","58","2016-06-16","373","Y","Y","Screening","0","2015-06-10","1","Vital Signs","Respiratory Rate (breaths/minute)","19.2641283479326","16","20"
"01-029","Clinical Site 01","01","50","M","Black","Placebo","PLACEBO","Ongoing","2015-06-10","2016-05-23","349","Y","1","2015-08-06","58","2016-06-16","373","Y","Y","Screening","0","2015-06-10","1","Vital Signs","Systolic Blood Pressure (mmHg)","125.755109553091","90","120"
"01-029","Clinical Site 01","01","50","M","Black","Placebo","PLACEBO","Ongoing","2015-06-10","2016-05-23","349","Y","1","2015-08-06","58","2016-06-16","373","Y","Y","Screening","0","2015-06-10","1","Vital Signs","Temperature (°C)","36.8465493084881","36.6","37"
"01-029","Clinical Site 01","01","50","M","Black","Placebo","PLACEBO","Ongoing","2015-06-10","2016-05-23","349","Y","1","2015-08-06","58","2016-06-16","373","Y","Y","Visit 1","1","2015-08-06","58","Vital Signs","Diastolic Blood Pressure (mmHg)","","60","80"
"01-029","Clinical Site 01","01","50","M","Black","Placebo","PLACEBO","Ongoing","2015-06-10","2016-05-23","349","Y","1","2015-08-06","58","2016-06-16","373","Y","Y","Visit 1","1","2015-08-06","58","Vital Signs","Heart Rate (beats/minute)","71.7044485867031","50","80"
"01-029","Clinical Site 01","01","50","M","Black","Placebo","PLACEBO","Ongoing","2015-06-10","2016-05-23","349","Y","1","2015-08-06","58","2016-06-16","373","Y","Y","Visit 1","1","2015-08-06","58","Vital Signs","Respiratory Rate (breaths/minute)","20.3781597973073","16","20"
"01-029","Clinical Site 01","01","50","M","Black","Placebo","PLACEBO","Ongoing","2015-06-10","2016-05-23","349","Y","1","2015-08-06","58","2016-06-16","373","Y","Y","Visit 1","1","2015-08-06","58","Vital Signs","Systolic Blood Pressure (mmHg)","106.824596840302","90","120"
"01-029","Clinical Site 01","01","50","M","Black","Placebo","PLACEBO","Ongoing","2015-06-10","2016-05-23","349","Y","1","2015-08-06","58","2016-06-16","373","Y","Y","Visit 1","1","2015-08-06","58","Vital Signs","Temperature (°C)","36.4985332288867","36.6","37"
"01-029","Clinical Site 01","01","50","M","Black","Placebo","PLACEBO","Ongoing","2015-06-10","2016-05-23","349","Y","1","2015-08-06","58","2016-06-16","373","Y","Y","Unscheduled 1.1","1.1","2015-08-14","66","Vital Signs","Diastolic Blood Pressure (mmHg)","79.4634884174326","60","80"
"01-029","Clinical Site 01","01","50","M","Black","Placebo","PLACEBO","Ongoing","2015-06-10","2016-05-23","349","Y","1","2015-08-06","58","2016-06-16","373","Y","Y","Unscheduled 1.1","1.1","2015-08-14","66","Vital Signs","Heart Rate (beats/minute)","63.5983271509963","50","80"
"01-029","Clinical Site 01","01","50","M","Black","Placebo","PLACEBO","Ongoing","2015-06-10","2016-05-23","349","Y","1","2015-08-06","58","2016-06-16","373","Y","Y","Unscheduled 1.1","1.1","2015-08-14","66","Vital Signs","Respiratory Rate (breaths/minute)","17.2221585559611","16","20"
"01-029","Clinical Site 01","01","50","M","Black","Placebo","PLACEBO","Ongoing","2015-06-10","2016-05-23","349","Y","1","2015-08-06","58","2016-06-16","373","Y","Y","Unscheduled 1.1","1.1","2015-08-14","66","Vital Signs","Systolic Blood Pressure (mmHg)","","90","120"
"01-029","Clinical Site 01","01","50","M","Black","Placebo","PLACEBO","Ongoing","2015-06-10","2016-05-23","349","Y","1","2015-08-06","58","2016-06-16","373","Y","Y","Unscheduled 1.1","1.1","2015-08-14","66","Vital Signs","Temperature (°C)","37.0783082592958","36.6","37"
"01-029","Clinical Site 01","01","50","M","Black","Placebo","PLACEBO","Ongoing","2015-06-10","2016-05-23","349","Y","1","2015-08-06","58","2016-06-16","373","Y","Y","Visit 3","3","2015-11-18","162","Vital Signs","Diastolic Blood Pressure (mmHg)","68.591052550218","60","80"
"01-029","Clinical Site 01","01","50","M","Black","Placebo","PLACEBO","Ongoing","2015-06-10","2016-05-23","349","Y","1","2015-08-06","58","2016-06-16","373","Y","Y","Visit 3","3","2015-11-18","162","Vital Signs","Heart Rate (beats/minute)","65.3495227307547","50","80"
"01-029","Clinical Site 01","01","50","M","Black","Placebo","PLACEBO","Ongoing","2015-06-10","2016-05-23","349","Y","1","2015-08-06","58","2016-06-16","373","Y","Y","Visit 3","3","2015-11-18","162","Vital Signs","Respiratory Rate (breaths/minute)","","16","20"
"01-029","Clinical Site 01","01","50","M","Black","Placebo","PLACEBO","Ongoing","2015-06-10","2016-05-23","349","Y","1","2015-08-06","58","2016-06-16","373","Y","Y","Visit 3","3","2015-11-18","162","Vital Signs","Systolic Blood Pressure (mmHg)","112.18889202919","90","120"
"01-029","Clinical Site 01","01","50","M","Black","Placebo","PLACEBO","Ongoing","2015-06-10","2016-05-23","349","Y","1","2015-08-06","58","2016-06-16","373","Y","Y","Visit 3","3","2015-11-18","162","Vital Signs","Temperature (°C)","36.5328706973126","36.6","37"
"01-029","Clinical Site 01","01","50","M","Black","Placebo","PLACEBO","Ongoing","2015-06-10","2016-05-23","349","Y","1","2015-08-06","58","2016-06-16","373","Y","Y","Visit 4","4","2016-01-15","220","Vital Signs","Diastolic Blood Pressure (mmHg)","79.637391034403","60","80"
"01-029","Clinical Site 01","01","50","M","Black","Placebo","PLACEBO","Ongoing","2015-06-10","2016-05-23","349","Y","1","2015-08-06","58","2016-06-16","373","Y","Y","Visit 4","4","2016-01-15","220","Vital Signs","Heart Rate (beats/minute)","67.1662487075905","50","80"
"01-029","Clinical Site 01","01","50","M","Black","Placebo","PLACEBO","Ongoing","2015-06-10","2016-05-23","349","Y","1","2015-08-06","58","2016-06-16","373","Y","Y","Visit 4","4","2016-01-15","220","Vital Signs","Respiratory Rate (breaths/minute)","16.0069989879414","16","20"
"01-029","Clinical Site 01","01","50","M","Black","Placebo","PLACEBO","Ongoing","2015-06-10","2016-05-23","349","Y","1","2015-08-06","58","2016-06-16","373","Y","Y","Visit 4","4","2016-01-15","220","Vital Signs","Systolic Blood Pressure (mmHg)","115.392174285776","90","120"
"01-029","Clinical Site 01","01","50","M","Black","Placebo","PLACEBO","Ongoing","2015-06-10","2016-05-23","349","Y","1","2015-08-06","58","2016-06-16","373","Y","Y","Visit 4","4","2016-01-15","220","Vital Signs","Temperature (°C)","36.9884950863601","36.6","37"
"02-002","Clinical Site 02","02","42","F","White","Treatment B","TRTB","Ongoing","2015-03-16","2015-07-18","125","Y","1","2015-05-16","62","2016-03-22","373","Y","Y","Screening","0","2015-03-16","1","Vital Signs","Diastolic Blood Pressure (mmHg)","52.7145843864869","60","80"
"02-002","Clinical Site 02","02","42","F","White","Treatment B","TRTB","Ongoing","2015-03-16","2015-07-18","125","Y","1","2015-05-16","62","2016-03-22","373","Y","Y","Screening","0","2015-03-16","1","Vital Signs","Heart Rate (beats/minute)","48.778572146004","50","80"
"02-002","Clinical Site 02","02","42","F","White","Treatment B","TRTB","Ongoing","2015-03-16","2015-07-18","125","Y","1","2015-05-16","62","2016-03-22","373","Y","Y","Screening","0","2015-03-16","1","Vital Signs","Respiratory Rate (breaths/minute)","19.1869704331853","16","20"
"02-002","Clinical Site 02","02","42","F","White","Treatment B","TRTB","Ongoing","2015-03-16","2015-07-18","125","Y","1","2015-05-16","62","2016-03-22","373","Y","Y","Screening","0","2015-03-16","1","Vital Signs","Systolic Blood Pressure (mmHg)","81.3867713844342","90","120"
"02-002","Clinical Site 02","02","42","F","White","Treatment B","TRTB","Ongoing","2015-03-16","2015-07-18","125","Y","1","2015-05-16","62","2016-03-22","373","Y","Y","Screening","0","2015-03-16","1","Vital Signs","Temperature (°C)","36.672913587529","36.6","37"
"02-002","Clinical Site 02","02","42","F","White","Treatment B","TRTB","Ongoing","2015-03-16","2015-07-18","125","Y","1","2015-05-16","62","2016-03-22","373","Y","Y","Visit 1","1","2015-05-16","62","Vital Signs","Diastolic Blood Pressure (mmHg)","","60","80"
"02-002","Clinical Site 02","02","42","F","White","Treatment B","TRTB","Ongoing","2015-03-16","2015-07-18","125","Y","1","2015-05-16","62","2016-03-22","373","Y","Y","Visit 1","1","2015-05-16","62","Vital Signs","Heart Rate (beats/minute)","40.710265779823","50","80"
"02-002","Clinical Site 02","02","42","F","White","Treatment B","TRTB","Ongoing","2015-03-16","2015-07-18","125","Y","1","2015-05-16","62","2016-03-22","373","Y","Y","Visit 1","1","2015-05-16","62","Vital Signs","Respiratory Rate (breaths/minute)","19.3916837190578","16","20"
"02-002","Clinical Site 02","02","42","F","White","Treatment B","TRTB","Ongoing","2015-03-16","2015-07-18","125","Y","1","2015-05-16","62","2016-03-22","373","Y","Y","Visit 1","1","2015-05-16","62","Vital Signs","Systolic Blood Pressure (mmHg)","108.351299376767","90","120"
"02-002","Clinical Site 02","02","42","F","White","Treatment B","TRTB","Ongoing","2015-03-16","2015-07-18","125","Y","1","2015-05-16","62","2016-03-22","373","Y","Y","Visit 1","1","2015-05-16","62","Vital Signs","Temperature (°C)","36.8053071788532","36.6","37"
"02-003","Clinical Site 02","02","27","F","Hispanic","Placebo","PLACEBO","Ongoing","2015-04-27","2015-12-14","232","Y","1","2015-06-26","61","2016-05-05","375","Y","Y","Screening","0","2015-04-27","1","Vital Signs","Diastolic Blood Pressure (mmHg)","70.162195073133","60","80"
"02-003","Clinical Site 02","02","27","F","Hispanic","Placebo","PLACEBO","Ongoing","2015-04-27","2015-12-14","232","Y","1","2015-06-26","61","2016-05-05","375","Y","Y","Screening","0","2015-04-27","1","Vital Signs","Heart Rate (beats/minute)","67.6973526378778","50","80"
"02-003","Clinical Site 02","02","27","F","Hispanic","Placebo","PLACEBO","Ongoing","2015-04-27","2015-12-14","232","Y","1","2015-06-26","61","2016-05-05","375","Y","Y","Screening","0","2015-04-27","1","Vital Signs","Respiratory Rate (breaths/minute)","19.3253616877161","16","20"
"02-003","Clinical Site 02","02","27","F","Hispanic","Placebo","PLACEBO","Ongoing","2015-04-27","2015-12-14","232","Y","1","2015-06-26","61","2016-05-05","375","Y","Y","Screening","0","2015-04-27","1","Vital Signs","Systolic Blood Pressure (mmHg)","91.0704115193029","90","120"
"02-003","Clinical Site 02","02","27","F","Hispanic","Placebo","PLACEBO","Ongoing","2015-04-27","2015-12-14","232","Y","1","2015-06-26","61","2016-05-05","375","Y","Y","Screening","0","2015-04-27","1","Vital Signs","Temperature (°C)","36.767252515178","36.6","37"
"02-003","Clinical Site 02","02","27","F","Hispanic","Placebo","PLACEBO","Ongoing","2015-04-27","2015-12-14","232","Y","1","2015-06-26","61","2016-05-05","375","Y","Y","Unscheduled 0.1","0.1","2015-05-05","9","Vital Signs","Diastolic Blood Pressure (mmHg)","69.5469718522452","60","80"
"02-003","Clinical Site 02","02","27","F","Hispanic","Placebo","PLACEBO","Ongoing","2015-04-27","2015-12-14","232","Y","1","2015-06-26","61","2016-05-05","375","Y","Y","Unscheduled 0.1","0.1","2015-05-05","9","Vital Signs","Heart Rate (beats/minute)","51.2358584502542","50","80"
"02-003","Clinical Site 02","02","27","F","Hispanic","Placebo","PLACEBO","Ongoing","2015-04-27","2015-12-14","232","Y","1","2015-06-26","61","2016-05-05","375","Y","Y","Unscheduled 0.1","0.1","2015-05-05","9","Vital Signs","Respiratory Rate (breaths/minute)","20.8226639567358","16","20"
"02-003","Clinical Site 02","02","27","F","Hispanic","Placebo","PLACEBO","Ongoing","2015-04-27","2015-12-14","232","Y","1","2015-06-26","61","2016-05-05","375","Y","Y","Unscheduled 0.1","0.1","2015-05-05","9","Vital Signs","Systolic Blood Pressure (mmHg)","97.4798195827685","90","120"
"02-003","Clinical Site 02","02","27","F","Hispanic","Placebo","PLACEBO","Ongoing","2015-04-27","2015-12-14","232","Y","1","2015-06-26","61","2016-05-05","375","Y","Y","Unscheduled 0.1","0.1","2015-05-05","9","Vital Signs","Temperature (°C)","36.9890941372204","36.6","37"
"02-003","Clinical Site 02","02","27","F","Hispanic","Placebo","PLACEBO","Ongoing","2015-04-27","2015-12-14","232","Y","1","2015-06-26","61","2016-05-05","375","Y","Y","Visit 1","1","2015-06-26","61","Vital Signs","Diastolic Blood Pressure (mmHg)","","60","80"
"02-003","Clinical Site 02","02","27","F","Hispanic","Placebo","PLACEBO","Ongoing","2015-04-27","2015-12-14","232","Y","1","2015-06-26","61","2016-05-05","375","Y","Y","Visit 1","1","2015-06-26","61","Vital Signs","Heart Rate (beats/minute)","72.2370249686553","50","80"
"02-003","Clinical Site 02","02","27","F","Hispanic","Placebo","PLACEBO","Ongoing","2015-04-27","2015-12-14","232","Y","1","2015-06-26","61","2016-05-05","375","Y","Y","Visit 1","1","2015-06-26","61","Vital Signs","Respiratory Rate (breaths/minute)","16.7237716393068","16","20"
"02-003","Clinical Site 02","02","27","F","Hispanic","Placebo","PLACEBO","Ongoing","2015-04-27","2015-12-14","232","Y","1","2015-06-26","61","2016-05-05","375","Y","Y","Visit 1","1","2015-06-26","61","Vital Signs","Systolic Blood Pressure (mmHg)","86.990486742779","90","120"
"02-003","Clinical Site 02","02","27","F","Hispanic","Placebo","PLACEBO","Ongoing","2015-04-27","2015-12-14","232","Y","1","2015-06-26","61","2016-05-05","375","Y","Y","Visit 1","1","2015-06-26","61","Vital Signs","Temperature (°C)","","36.6","37"
"02-003","Clinical Site 02","02","27","F","Hispanic","Placebo","PLACEBO","Ongoing","2015-04-27","2015-12-14","232","Y","1","2015-06-26","61","2016-05-05","375","Y","Y","Visit 2","2","2015-08-16","112","Vital Signs","Diastolic Blood Pressure (mmHg)","91.1088917649371","60","80"
"02-003","Clinical Site 02","02","27","F","Hispanic","Placebo","PLACEBO","Ongoing","2015-04-27","2015-12-14","232","Y","1","2015-06-26","61","2016-05-05","375","Y","Y","Visit 2","2","2015-08-16","112","Vital Signs","Heart Rate (beats/minute)","56.1489215375183","50","80"
"02-003","Clinical Site 02","02","27","F","Hispanic","Placebo","PLACEBO","Ongoing","2015-04-27","2015-12-14","232","Y","1","2015-06-26","61","2016-05-05","375","Y","Y","Visit 2","2","2015-08-16","112","Vital Signs","Respiratory Rate (breaths/minute)","20.4958321602282","16","20"
"02-003","Clinical Site 02","02","27","F","Hispanic","Placebo","PLACEBO","Ongoing","2015-04-27","2015-12-14","232","Y","1","2015-06-26","61","2016-05-05","375","Y","Y","Visit 2","2","2015-08-16","112","Vital Signs","Systolic Blood Pressure (mmHg)","87.5658130803602","90","120"
"02-003","Clinical Site 02","02","27","F","Hispanic","Placebo","PLACEBO","Ongoing","2015-04-27","2015-12-14","232","Y","1","2015-06-26","61","2016-05-05","375","Y","Y","Visit 2","2","2015-08-16","112","Vital Signs","Temperature (°C)","36.8133559827351","36.6","37"
"02-003","Clinical Site 02","02","27","F","Hispanic","Placebo","PLACEBO","Ongoing","2015-04-27","2015-12-14","232","Y","1","2015-06-26","61","2016-05-05","375","Y","Y","Visit 3","3","2015-10-04","161","Vital Signs","Diastolic Blood Pressure (mmHg)","66.9690530586983","60","80"
"02-003","Clinical Site 02","02","27","F","Hispanic","Placebo","PLACEBO","Ongoing","2015-04-27","2015-12-14","232","Y","1","2015-06-26","61","2016-05-05","375","Y","Y","Visit 3","3","2015-10-04","161","Vital Signs","Heart Rate (beats/minute)","54.8564783007941","50","80"
"02-003","Clinical Site 02","02","27","F","Hispanic","Placebo","PLACEBO","Ongoing","2015-04-27","2015-12-14","232","Y","1","2015-06-26","61","2016-05-05","375","Y","Y","Visit 3","3","2015-10-04","161","Vital Signs","Respiratory Rate (breaths/minute)","","16","20"
"02-003","Clinical Site 02","02","27","F","Hispanic","Placebo","PLACEBO","Ongoing","2015-04-27","2015-12-14","232","Y","1","2015-06-26","61","2016-05-05","375","Y","Y","Visit 3","3","2015-10-04","161","Vital Signs","Systolic Blood Pressure (mmHg)","95.1156215362388","90","120"
"02-003","Clinical Site 02","02","27","F","Hispanic","Placebo","PLACEBO","Ongoing","2015-04-27","2015-12-14","232","Y","1","2015-06-26","61","2016-05-05","375","Y","Y","Visit 3","3","2015-10-04","161","Vital Signs","Temperature (°C)","36.9683794070386","36.6","37"
"02-005","Clinical Site 02","02","18","M","Hispanic","Treatment B","TRTB","Early Termination","2015-12-13","2016-07-21","222","Y","1","2016-02-10","60","2016-12-15","369","Y","N","Screening","0","2015-12-13","1","Vital Signs","Diastolic Blood Pressure (mmHg)","74.0184261736687","60","80"
"02-005","Clinical Site 02","02","18","M","Hispanic","Treatment B","TRTB","Early Termination","2015-12-13","2016-07-21","222","Y","1","2016-02-10","60","2016-12-15","369","Y","N","Screening","0","2015-12-13","1","Vital Signs","Heart Rate (beats/minute)","96.5145586308597","50","80"
"02-005","Clinical Site 02","02","18","M","Hispanic","Treatment B","TRTB","Early Termination","2015-12-13","2016-07-21","222","Y","1","2016-02-10","60","2016-12-15","369","Y","N","Screening","0","2015-12-13","1","Vital Signs","Respiratory Rate (breaths/minute)","13.8095493560878","16","20"
"02-005","Clinical Site 02","02","18","M","Hispanic","Treatment B","TRTB","Early Termination","2015-12-13","2016-07-21","222","Y","1","2016-02-10","60","2016-12-15","369","Y","N","Screening","0","2015-12-13","1","Vital Signs","Systolic Blood Pressure (mmHg)","120.356405699415","90","120"
"02-005","Clinical Site 02","02","18","M","Hispanic","Treatment B","TRTB","Early Termination","2015-12-13","2016-07-21","222","Y","1","2016-02-10","60","2016-12-15","369","Y","N","Screening","0","2015-12-13","1","Vital Signs","Temperature (°C)","36.7459669792795","36.6","37"
"02-005","Clinical Site 02","02","18","M","Hispanic","Treatment B","TRTB","Early Termination","2015-12-13","2016-07-21","222","Y","1","2016-02-10","60","2016-12-15","369","Y","N","Visit 1","1","2016-02-10","60","Vital Signs","Diastolic Blood Pressure (mmHg)","","60","80"
"02-005","Clinical Site 02","02","18","M","Hispanic","Treatment B","TRTB","Early Termination","2015-12-13","2016-07-21","222","Y","1","2016-02-10","60","2016-12-15","369","Y","N","Visit 1","1","2016-02-10","60","Vital Signs","Heart Rate (beats/minute)","63.9658790921555","50","80"
"02-005","Clinical Site 02","02","18","M","Hispanic","Treatment B","TRTB","Early Termination","2015-12-13","2016-07-21","222","Y","1","2016-02-10","60","2016-12-15","369","Y","N","Visit 1","1","2016-02-10","60","Vital Signs","Respiratory Rate (breaths/minute)","17.2826411656573","16","20"
"02-005","Clinical Site 02","02","18","M","Hispanic","Treatment B","TRTB","Early Termination","2015-12-13","2016-07-21","222","Y","1","2016-02-10","60","2016-12-15","369","Y","N","Visit 1","1","2016-02-10","60","Vital Signs","Systolic Blood Pressure (mmHg)","102.632047666576","90","120"
"02-005","Clinical Site 02","02","18","M","Hispanic","Treatment B","TRTB","Early Termination","2015-12-13","2016-07-21","222","Y","1","2016-02-10","60","2016-12-15","369","Y","N","Visit 1","1","2016-02-10","60","Vital Signs","Temperature (°C)","36.4119678175809","36.6","37"
"02-005","Clinical Site 02","02","18","M","Hispanic","Treatment B","TRTB","Early Termination","2015-12-13","2016-07-21","222","Y","1","2016-02-10","60","2016-12-15","369","Y","N","Visit 2","2","2016-04-06","116","Vital Signs","Diastolic Blood Pressure (mmHg)","74.2911651196996","60","80"
"02-005","Clinical Site 02","02","18","M","Hispanic","Treatment B","TRTB","Early Termination","2015-12-13","2016-07-21","222","Y","1","2016-02-10","60","2016-12-15","369","Y","N","Visit 2","2","2016-04-06","116","Vital Signs","Heart Rate (beats/minute)","69.7929488780343","50","80"
"02-005","Clinical Site 02","02","18","M","Hispanic","Treatment B","TRTB","Early Termination","2015-12-13","2016-07-21","222","Y","1","2016-02-10","60","2016-12-15","369","Y","N","Visit 2","2","2016-04-06","116","Vital Signs","Respiratory Rate (breaths/minute)","18.0377782853621","16","20"
"02-005","Clinical Site 02","02","18","M","Hispanic","Treatment B","TRTB","Early Termination","2015-12-13","2016-07-21","222","Y","1","2016-02-10","60","2016-12-15","369","Y","N","Visit 2","2","2016-04-06","116","Vital Signs","Systolic Blood Pressure (mmHg)","117.186094421297","90","120"
"02-005","Clinical Site 02","02","18","M","Hispanic","Treatment B","TRTB","Early Termination","2015-12-13","2016-07-21","222","Y","1","2016-02-10","60","2016-12-15","369","Y","N","Visit 2","2","2016-04-06","116","Vital Signs","Temperature (°C)","36.68698945629","36.6","37"
"02-005","Clinical Site 02","02","18","M","Hispanic","Treatment B","TRTB","Early Termination","2015-12-13","2016-07-21","222","Y","1","2016-02-10","60","2016-12-15","369","Y","N","Visit 3","3","2016-05-21","161","Vital Signs","Diastolic Blood Pressure (mmHg)","79.3367837041014","60","80"
"02-005","Clinical Site 02","02","18","M","Hispanic","Treatment B","TRTB","Early Termination","2015-12-13","2016-07-21","222","Y","1","2016-02-10","60","2016-12-15","369","Y","N","Visit 3","3","2016-05-21","161","Vital Signs","Heart Rate (beats/minute)","38.418355332976","50","80"
"02-005","Clinical Site 02","02","18","M","Hispanic","Treatment B","TRTB","Early Termination","2015-12-13","2016-07-21","222","Y","1","2016-02-10","60","2016-12-15","369","Y","N","Visit 3","3","2016-05-21","161","Vital Signs","Respiratory Rate (breaths/minute)","","16","20"
"02-005","Clinical Site 02","02","18","M","Hispanic","Treatment B","TRTB","Early Termination","2015-12-13","2016-07-21","222","Y","1","2016-02-10","60","2016-12-15","369","Y","N","Visit 3","3","2016-05-21","161","Vital Signs","Systolic Blood Pressure (mmHg)","80.9478223063274","90","120"
"02-005","Clinical Site 02","02","18","M","Hispanic","Treatment B","TRTB","Early Termination","2015-12-13","2016-07-21","222","Y","1","2016-02-10","60","2016-12-15","369","Y","N","Visit 3","3","2016-05-21","161","Vital Signs","Temperature (°C)","36.69289658519","36.6","37"
"02-005","Clinical Site 02","02","18","M","Hispanic","Treatment B","TRTB","Early Termination","2015-12-13","2016-07-21","222","Y","1","2016-02-10","60","2016-12-15","369","Y","N","Visit 4","4","2016-07-16","217","Vital Signs","Diastolic Blood Pressure (mmHg)","68.8308943559446","60","80"
"02-005","Clinical Site 02","02","18","M","Hispanic","Treatment B","TRTB","Early Termination","2015-12-13","2016-07-21","222","Y","1","2016-02-10","60","2016-12-15","369","Y","N","Visit 4","4","2016-07-16","217","Vital Signs","Heart Rate (beats/minute)","42.6244258517454","50","80"
"02-005","Clinical Site 02","02","18","M","Hispanic","Treatment B","TRTB","Early Termination","2015-12-13","2016-07-21","222","Y","1","2016-02-10","60","2016-12-15","369","Y","N","Visit 4","4","2016-07-16","217","Vital Signs","Respiratory Rate (breaths/minute)","18.0234557218412","16","20"
"02-005","Clinical Site 02","02","18","M","Hispanic","Treatment B","TRTB","Early Termination","2015-12-13","2016-07-21","222","Y","1","2016-02-10","60","2016-12-15","369","Y","N","Visit 4","4","2016-07-16","217","Vital Signs","Systolic Blood Pressure (mmHg)","99.4732455558943","90","120"
"02-005","Clinical Site 02","02","18","M","Hispanic","Treatment B","TRTB","Early Termination","2015-12-13","2016-07-21","222","Y","1","2016-02-10","60","2016-12-15","369","Y","N","Visit 4","4","2016-07-16","217","Vital Signs","Temperature (°C)","36.6379142796498","36.6","37"
"02-005","Clinical Site 02","02","18","M","Hispanic","Treatment B","TRTB","Early Termination","2015-12-13","2016-07-21","222","Y","1","2016-02-10","60","2016-12-15","369","Y","N","Early Termination","6.9","2016-07-21","222","Vital Signs","Diastolic Blood Pressure (mmHg)","79.3894945578406","60","80"
"02-005","Clinical Site 02","02","18","M","Hispanic","Treatment B","TRTB","Early Termination","2015-12-13","2016-07-21","222","Y","1","2016-02-10","60","2016-12-15","369","Y","N","Early Termination","6.9","2016-07-21","222","Vital Signs","Heart Rate (beats/minute)","68.9436817141132","50","80"
"02-005","Clinical Site 02","02","18","M","Hispanic","Treatment B","TRTB","Early Termination","2015-12-13","2016-07-21","222","Y","1","2016-02-10","60","2016-12-15","369","Y","N","Early Termination","6.9","2016-07-21","222","Vital Signs","Respiratory Rate (breaths/minute)","18.348624938857","16","20"
"02-005","Clinical Site 02","02","18","M","Hispanic","Treatment B","TRTB","Early Termination","2015-12-13","2016-07-21","222","Y","1","2016-02-10","60","2016-12-15","369","Y","N","Early Termination","6.9","2016-07-21","222","Vital Signs","Systolic Blood Pressure (mmHg)","102.090365067524","90","120"
"02-005","Clinical Site 02","02","18","M","Hispanic","Treatment B","TRTB","Early Termination","2015-12-13","2016-07-21","222","Y","1","2016-02-10","60","2016-12-15","369","Y","N","Early Termination","6.9","2016-07-21","222","Vital Signs","Temperature (°C)","37.0628385241771","36.6","37"
"02-006","Clinical Site 02","02","36","M","White","Placebo","PLACEBO","Early Termination","2015-06-03","2015-09-18","108","Y","1","2015-08-01","60","2016-05-24","357","Y","Y","Screening","0","2015-06-03","1","Vital Signs","Diastolic Blood Pressure (mmHg)","65.0273871641261","60","80"
"02-006","Clinical Site 02","02","36","M","White","Placebo","PLACEBO","Early Termination","2015-06-03","2015-09-18","108","Y","1","2015-08-01","60","2016-05-24","357","Y","Y","Screening","0","2015-06-03","1","Vital Signs","Heart Rate (beats/minute)","76.6154684640304","50","80"
"02-006","Clinical Site 02","02","36","M","White","Placebo","PLACEBO","Early Termination","2015-06-03","2015-09-18","108","Y","1","2015-08-01","60","2016-05-24","357","Y","Y","Screening","0","2015-06-03","1","Vital Signs","Respiratory Rate (breaths/minute)","19.2917991450057","16","20"
"02-006","Clinical Site 02","02","36","M","White","Placebo","PLACEBO","Early Termination","2015-06-03","2015-09-18","108","Y","1","2015-08-01","60","2016-05-24","357","Y","Y","Screening","0","2015-06-03","1","Vital Signs","Systolic Blood Pressure (mmHg)","114.752845510482","90","120"
"02-006","Clinical Site 02","02","36","M","White","Placebo","PLACEBO","Early Termination","2015-06-03","2015-09-18","108","Y","1","2015-08-01","60","2016-05-24","357","Y","Y","Screening","0","2015-06-03","1","Vital Signs","Temperature (°C)","36.5658284397328","36.6","37"
"02-006","Clinical Site 02","02","36","M","White","Placebo","PLACEBO","Early Termination","2015-06-03","2015-09-18","108","Y","1","2015-08-01","60","2016-05-24","357","Y","Y","Visit 1","1","2015-08-01","60","Vital Signs","Diastolic Blood Pressure (mmHg)","","60","80"
"02-006","Clinical Site 02","02","36","M","White","Placebo","PLACEBO","Early Termination","2015-06-03","2015-09-18","108","Y","1","2015-08-01","60","2016-05-24","357","Y","Y","Visit 1","1","2015-08-01","60","Vital Signs","Heart Rate (beats/minute)","71.9134913431078","50","80"
"02-006","Clinical Site 02","02","36","M","White","Placebo","PLACEBO","Early Termination","2015-06-03","2015-09-18","108","Y","1","2015-08-01","60","2016-05-24","357","Y","Y","Visit 1","1","2015-08-01","60","Vital Signs","Respiratory Rate (breaths/minute)","20.8965389875298","16","20"
"02-006","Clinical Site 02","02","36","M","White","Placebo","PLACEBO","Early Termination","2015-06-03","2015-09-18","108","Y","1","2015-08-01","60","2016-05-24","357","Y","Y","Visit 1","1","2015-08-01","60","Vital Signs","Systolic Blood Pressure (mmHg)","115.372921897582","90","120"
"02-006","Clinical Site 02","02","36","M","White","Placebo","PLACEBO","Early Termination","2015-06-03","2015-09-18","108","Y","1","2015-08-01","60","2016-05-24","357","Y","Y","Visit 1","1","2015-08-01","60","Vital Signs","Temperature (°C)","36.2068394149742","36.6","37"
"02-006","Clinical Site 02","02","36","M","White","Placebo","PLACEBO","Early Termination","2015-06-03","2015-09-18","108","Y","1","2015-08-01","60","2016-05-24","357","Y","Y","Early Termination","6.9","2015-09-18","108","Vital Signs","Diastolic Blood Pressure (mmHg)","41.6272201587668","60","80"
"02-006","Clinical Site 02","02","36","M","White","Placebo","PLACEBO","Early Termination","2015-06-03","2015-09-18","108","Y","1","2015-08-01","60","2016-05-24","357","Y","Y","Early Termination","6.9","2015-09-18","108","Vital Signs","Heart Rate (beats/minute)","49.1952128888546","50","80"
"02-006","Clinical Site 02","02","36","M","White","Placebo","PLACEBO","Early Termination","2015-06-03","2015-09-18","108","Y","1","2015-08-01","60","2016-05-24","357","Y","Y","Early Termination","6.9","2015-09-18","108","Vital Signs","Respiratory Rate (breaths/minute)","18.3811917355747","16","20"
"02-006","Clinical Site 02","02","36","M","White","Placebo","PLACEBO","Early Termination","2015-06-03","2015-09-18","108","Y","1","2015-08-01","60","2016-05-24","357","Y","Y","Early Termination","6.9","2015-09-18","108","Vital Signs","Systolic Blood Pressure (mmHg)","93.7850346202447","90","120"
"02-006","Clinical Site 02","02","36","M","White","Placebo","PLACEBO","Early Termination","2015-06-03","2015-09-18","108","Y","1","2015-08-01","60","2016-05-24","357","Y","Y","Early Termination","6.9","2015-09-18","108","Vital Signs","Temperature (°C)","36.6391810402616","36.6","37"
"02-008","Clinical Site 02","02","21","F","Other/Mixed","Treatment B","TRTB","Completed","2015-08-17","2016-08-23","373","Y","1","2015-10-12","57","2016-08-14","364","Y","Y","Screening","0","2015-08-17","1","Vital Signs","Diastolic Blood Pressure (mmHg)","76.9126260767737","60","80"
"02-008","Clinical Site 02","02","21","F","Other/Mixed","Treatment B","TRTB","Completed","2015-08-17","2016-08-23","373","Y","1","2015-10-12","57","2016-08-14","364","Y","Y","Screening","0","2015-08-17","1","Vital Signs","Heart Rate (beats/minute)","63.4699929217289","50","80"
"02-008","Clinical Site 02","02","21","F","Other/Mixed","Treatment B","TRTB","Completed","2015-08-17","2016-08-23","373","Y","1","2015-10-12","57","2016-08-14","364","Y","Y","Screening","0","2015-08-17","1","Vital Signs","Respiratory Rate (breaths/minute)","20.7881844781423","16","20"
"02-008","Clinical Site 02","02","21","F","Other/Mixed","Treatment B","TRTB","Completed","2015-08-17","2016-08-23","373","Y","1","2015-10-12","57","2016-08-14","364","Y","Y","Screening","0","2015-08-17","1","Vital Signs","Systolic Blood Pressure (mmHg)","62.9134113208241","90","120"
"02-008","Clinical Site 02","02","21","F","Other/Mixed","Treatment B","TRTB","Completed","2015-08-17","2016-08-23","373","Y","1","2015-10-12","57","2016-08-14","364","Y","Y","Screening","0","2015-08-17","1","Vital Signs","Temperature (°C)","36.3966252021766","36.6","37"
"02-008","Clinical Site 02","02","21","F","Other/Mixed","Treatment B","TRTB","Completed","2015-08-17","2016-08-23","373","Y","1","2015-10-12","57","2016-08-14","364","Y","Y","Visit 1","1","2015-10-12","57","Vital Signs","Diastolic Blood Pressure (mmHg)","","60","80"
"02-008","Clinical Site 02","02","21","F","Other/Mixed","Treatment B","TRTB","Completed","2015-08-17","2016-08-23","373","Y","1","2015-10-12","57","2016-08-14","364","Y","Y","Visit 1","1","2015-10-12","57","Vital Signs","Heart Rate (beats/minute)","63.8035850153572","50","80"
"02-008","Clinical Site 02","02","21","F","Other/Mixed","Treatment B","TRTB","Completed","2015-08-17","2016-08-23","373","Y","1","2015-10-12","57","2016-08-14","364","Y","Y","Visit 1","1","2015-10-12","57","Vital Signs","Respiratory Rate (breaths/minute)","15.8061967794483","16","20"
"02-008","Clinical Site 02","02","21","F","Other/Mixed","Treatment B","TRTB","Completed","2015-08-17","2016-08-23","373","Y","1","2015-10-12","57","2016-08-14","364","Y","Y","Visit 1","1","2015-10-12","57","Vital Signs","Systolic Blood Pressure (mmHg)","106.158705266552","90","120"
"02-008","Clinical Site 02","02","21","F","Other/Mixed","Treatment B","TRTB","Completed","2015-08-17","2016-08-23","373","Y","1","2015-10-12","57","2016-08-14","364","Y","Y","Visit 1","1","2015-10-12","57","Vital Signs","Temperature (°C)","36.9459661039571","36.6","37"
"02-008","Clinical Site 02","02","21","F","Other/Mixed","Treatment B","TRTB","Completed","2015-08-17","2016-08-23","373","Y","1","2015-10-12","57","2016-08-14","364","Y","Y","Visit 2","2","2015-12-04","110","Vital Signs","Diastolic Blood Pressure (mmHg)","91.8866732570524","60","80"
"02-008","Clinical Site 02","02","21","F","Other/Mixed","Treatment B","TRTB","Completed","2015-08-17","2016-08-23","373","Y","1","2015-10-12","57","2016-08-14","364","Y","Y","Visit 2","2","2015-12-04","110","Vital Signs","Heart Rate (beats/minute)","59.9426830868482","50","80"
"02-008","Clinical Site 02","02","21","F","Other/Mixed","Treatment B","TRTB","Completed","2015-08-17","2016-08-23","373","Y","1","2015-10-12","57","2016-08-14","364","Y","Y","Visit 2","2","2015-12-04","110","Vital Signs","Respiratory Rate (breaths/minute)","18.2232973321812","16","20"
"02-008","Clinical Site 02","02","21","F","Other/Mixed","Treatment B","TRTB","Completed","2015-08-17","2016-08-23","373","Y","1","2015-10-12","57","2016-08-14","364","Y","Y","Visit 2","2","2015-12-04","110","Vital Signs","Systolic Blood Pressure (mmHg)","122.633887974784","90","120"
"02-008","Clinical Site 02","02","21","F","Other/Mixed","Treatment B","TRTB","Completed","2015-08-17","2016-08-23","373","Y","1","2015-10-12","57","2016-08-14","364","Y","Y","Visit 2","2","2015-12-04","110","Vital Signs","Temperature (°C)","36.7005182452576","36.6","37"
"02-008","Clinical Site 02","02","21","F","Other/Mixed","Treatment B","TRTB","Completed","2015-08-17","2016-08-23","373","Y","1","2015-10-12","57","2016-08-14","364","Y","Y","Visit 3","3","2016-02-04","172","Vital Signs","Diastolic Blood Pressure (mmHg)","74.5529145949781","60","80"
"02-008","Clinical Site 02","02","21","F","Other/Mixed","Treatment B","TRTB","Completed","2015-08-17","2016-08-23","373","Y","1","2015-10-12","57","2016-08-14","364","Y","Y","Visit 3","3","2016-02-04","172","Vital Signs","Heart Rate (beats/minute)","67.4888047218403","50","80"
"02-008","Clinical Site 02","02","21","F","Other/Mixed","Treatment B","TRTB","Completed","2015-08-17","2016-08-23","373","Y","1","2015-10-12","57","2016-08-14","364","Y","Y","Visit 3","3","2016-02-04","172","Vital Signs","Respiratory Rate (breaths/minute)","","16","20"
"02-008","Clinical Site 02","02","21","F","Other/Mixed","Treatment B","TRTB","Completed","2015-08-17","2016-08-23","373","Y","1","2015-10-12","57","2016-08-14","364","Y","Y","Visit 3","3","2016-02-04","172","Vital Signs","Systolic Blood Pressure (mmHg)","119.204618788288","90","120"
"02-008","Clinical Site 02","02","21","F","Other/Mixed","Treatment B","TRTB","Completed","2015-08-17","2016-08-23","373","Y","1","2015-10-12","57","2016-08-14","364","Y","Y","Visit 3","3","2016-02-04","172","Vital Signs","Temperature (°C)","36.7426343217876","36.6","37"
"02-008","Clinical Site 02","02","21","F","Other/Mixed","Treatment B","TRTB","Completed","2015-08-17","2016-08-23","373","Y","1","2015-10-12","57","2016-08-14","364","Y","Y","Unscheduled 3.1","3.1","2016-02-12","180","Vital Signs","Diastolic Blood Pressure (mmHg)","69.3987635358585","60","80"
"02-008","Clinical Site 02","02","21","F","Other/Mixed","Treatment B","TRTB","Completed","2015-08-17","2016-08-23","373","Y","1","2015-10-12","57","2016-08-14","364","Y","Y","Unscheduled 3.1","3.1","2016-02-12","180","Vital Signs","Heart Rate (beats/minute)","63.0024109932046","50","80"
"02-008","Clinical Site 02","02","21","F","Other/Mixed","Treatment B","TRTB","Completed","2015-08-17","2016-08-23","373","Y","1","2015-10-12","57","2016-08-14","364","Y","Y","Unscheduled 3.1","3.1","2016-02-12","180","Vital Signs","Respiratory Rate (breaths/minute)","18.2264812295553","16","20"
"02-008","Clinical Site 02","02","21","F","Other/Mixed","Treatment B","TRTB","Completed","2015-08-17","2016-08-23","373","Y","1","2015-10-12","57","2016-08-14","364","Y","Y","Unscheduled 3.1","3.1","2016-02-12","180","Vital Signs","Systolic Blood Pressure (mmHg)","94.3010949350451","90","120"
"02-008","Clinical Site 02","02","21","F","Other/Mixed","Treatment B","TRTB","Completed","2015-08-17","2016-08-23","373","Y","1","2015-10-12","57","2016-08-14","364","Y","Y","Unscheduled 3.1","3.1","2016-02-12","180","Vital Signs","Temperature (°C)","","36.6","37"
"02-008","Clinical Site 02","02","21","F","Other/Mixed","Treatment B","TRTB","Completed","2015-08-17","2016-08-23","373","Y","1","2015-10-12","57","2016-08-14","364","Y","Y","Visit 4","4","2016-04-03","231","Vital Signs","Diastolic Blood Pressure (mmHg)","54.0806490828546","60","80"
"02-008","Clinical Site 02","02","21","F","Other/Mixed","Treatment B","TRTB","Completed","2015-08-17","2016-08-23","373","Y","1","2015-10-12","57","2016-08-14","364","Y","Y","Visit 4","4","2016-04-03","231","Vital Signs","Heart Rate (beats/minute)","102.351578940445","50","80"
"02-008","Clinical Site 02","02","21","F","Other/Mixed","Treatment B","TRTB","Completed","2015-08-17","2016-08-23","373","Y","1","2015-10-12","57","2016-08-14","364","Y","Y","Visit 4","4","2016-04-03","231","Vital Signs","Respiratory Rate (breaths/minute)","18.170257812522","16","20"
"02-008","Clinical Site 02","02","21","F","Other/Mixed","Treatment B","TRTB","Completed","2015-08-17","2016-08-23","373","Y","1","2015-10-12","57","2016-08-14","364","Y","Y","Visit 4","4","2016-04-03","231","Vital Signs","Systolic Blood Pressure (mmHg)","92.5290013781251","90","120"
"02-008","Clinical Site 02","02","21","F","Other/Mixed","Treatment B","TRTB","Completed","2015-08-17","2016-08-23","373","Y","1","2015-10-12","57","2016-08-14","364","Y","Y","Visit 4","4","2016-04-03","231","Vital Signs","Temperature (°C)","36.4795445523001","36.6","37"
"02-008","Clinical Site 02","02","21","F","Other/Mixed","Treatment B","TRTB","Completed","2015-08-17","2016-08-23","373","Y","1","2015-10-12","57","2016-08-14","364","Y","Y","Visit 5","5","2016-05-15","273","Vital Signs","Diastolic Blood Pressure (mmHg)","50.7606183651892","60","80"
"02-008","Clinical Site 02","02","21","F","Other/Mixed","Treatment B","TRTB","Completed","2015-08-17","2016-08-23","373","Y","1","2015-10-12","57","2016-08-14","364","Y","Y","Visit 5","5","2016-05-15","273","Vital Signs","Heart Rate (beats/minute)","26.2422099904444","50","80"
"02-008","Clinical Site 02","02","21","F","Other/Mixed","Treatment B","TRTB","Completed","2015-08-17","2016-08-23","373","Y","1","2015-10-12","57","2016-08-14","364","Y","Y","Visit 5","5","2016-05-15","273","Vital Signs","Respiratory Rate (breaths/minute)","15.3844961376544","16","20"
"02-008","Clinical Site 02","02","21","F","Other/Mixed","Treatment B","TRTB","Completed","2015-08-17","2016-08-23","373","Y","1","2015-10-12","57","2016-08-14","364","Y","Y","Visit 5","5","2016-05-15","273","Vital Signs","Systolic Blood Pressure (mmHg)","","90","120"
"02-008","Clinical Site 02","02","21","F","Other/Mixed","Treatment B","TRTB","Completed","2015-08-17","2016-08-23","373","Y","1","2015-10-12","57","2016-08-14","364","Y","Y","Visit 5","5","2016-05-15","273","Vital Signs","Temperature (°C)","","36.6","37"
"02-008","Clinical Site 02","02","21","F","Other/Mixed","Treatment B","TRTB","Completed","2015-08-17","2016-08-23","373","Y","1","2015-10-12","57","2016-08-14","364","Y","Y","Visit 6","6","2016-07-11","330","Vital Signs","Diastolic Blood Pressure (mmHg)","74.270666148275","60","80"
"02-008","Clinical Site 02","02","21","F","Other/Mixed","Treatment B","TRTB","Completed","2015-08-17","2016-08-23","373","Y","1","2015-10-12","57","2016-08-14","364","Y","Y","Visit 6","6","2016-07-11","330","Vital Signs","Heart Rate (beats/minute)","56.8604066077378","50","80"
"02-008","Clinical Site 02","02","21","F","Other/Mixed","Treatment B","TRTB","Completed","2015-08-17","2016-08-23","373","Y","1","2015-10-12","57","2016-08-14","364","Y","Y","Visit 6","6","2016-07-11","330","Vital Signs","Respiratory Rate (breaths/minute)","17.7974473298099","16","20"
"02-008","Clinical Site 02","02","21","F","Other/Mixed","Treatment B","TRTB","Completed","2015-08-17","2016-08-23","373","Y","1","2015-10-12","57","2016-08-14","364","Y","Y","Visit 6","6","2016-07-11","330","Vital Signs","Systolic Blood Pressure (mmHg)","110.890715007892","90","120"
"02-008","Clinical Site 02","02","21","F","Other/Mixed","Treatment B","TRTB","Completed","2015-08-17","2016-08-23","373","Y","1","2015-10-12","57","2016-08-14","364","Y","Y","Visit 6","6","2016-07-11","330","Vital Signs","Temperature (°C)","36.8804653814291","36.6","37"
"02-008","Clinical Site 02","02","21","F","Other/Mixed","Treatment B","TRTB","Completed","2015-08-17","2016-08-23","373","Y","1","2015-10-12","57","2016-08-14","364","Y","Y","Unscheduled 6.1","6.1","2016-07-19","338","Vital Signs","Diastolic Blood Pressure (mmHg)","65.1097096574013","60","80"
"02-008","Clinical Site 02","02","21","F","Other/Mixed","Treatment B","TRTB","Completed","2015-08-17","2016-08-23","373","Y","1","2015-10-12","57","2016-08-14","364","Y","Y","Unscheduled 6.1","6.1","2016-07-19","338","Vital Signs","Heart Rate (beats/minute)","41.8409805072234","50","80"
"02-008","Clinical Site 02","02","21","F","Other/Mixed","Treatment B","TRTB","Completed","2015-08-17","2016-08-23","373","Y","1","2015-10-12","57","2016-08-14","364","Y","Y","Unscheduled 6.1","6.1","2016-07-19","338","Vital Signs","Respiratory Rate (breaths/minute)","19.7510850233613","16","20"
"02-008","Clinical Site 02","02","21","F","Other/Mixed","Treatment B","TRTB","Completed","2015-08-17","2016-08-23","373","Y","1","2015-10-12","57","2016-08-14","364","Y","Y","Unscheduled 6.1","6.1","2016-07-19","338","Vital Signs","Systolic Blood Pressure (mmHg)","132.220543686402","90","120"
"02-008","Clinical Site 02","02","21","F","Other/Mixed","Treatment B","TRTB","Completed","2015-08-17","2016-08-23","373","Y","1","2015-10-12","57","2016-08-14","364","Y","Y","Unscheduled 6.1","6.1","2016-07-19","338","Vital Signs","Temperature (°C)","36.9985431299197","36.6","37"
"02-008","Clinical Site 02","02","21","F","Other/Mixed","Treatment B","TRTB","Completed","2015-08-17","2016-08-23","373","Y","1","2015-10-12","57","2016-08-14","364","Y","Y","End of Study","7","2016-08-14","364","Vital Signs","Diastolic Blood Pressure (mmHg)","72.583501504752","60","80"
"02-008","Clinical Site 02","02","21","F","Other/Mixed","Treatment B","TRTB","Completed","2015-08-17","2016-08-23","373","Y","1","2015-10-12","57","2016-08-14","364","Y","Y","End of Study","7","2016-08-14","364","Vital Signs","Heart Rate (beats/minute)","81.7169341161439","50","80"
"02-008","Clinical Site 02","02","21","F","Other/Mixed","Treatment B","TRTB","Completed","2015-08-17","2016-08-23","373","Y","1","2015-10-12","57","2016-08-14","364","Y","Y","End of Study","7","2016-08-14","364","Vital Signs","Respiratory Rate (breaths/minute)","19.3069173668757","16","20"
"02-008","Clinical Site 02","02","21","F","Other/Mixed","Treatment B","TRTB","Completed","2015-08-17","2016-08-23","373","Y","1","2015-10-12","57","2016-08-14","364","Y","Y","End of Study","7","2016-08-14","364","Vital Signs","Systolic Blood Pressure (mmHg)","","90","120"
"02-008","Clinical Site 02","02","21","F","Other/Mixed","Treatment B","TRTB","Completed","2015-08-17","2016-08-23","373","Y","1","2015-10-12","57","2016-08-14","364","Y","Y","End of Study","7","2016-08-14","364","Vital Signs","Temperature (°C)","36.6365272272872","36.6","37"
"02-009","Clinical Site 02","02","27","F","Black","Treatment B","TRTB","Ongoing","2015-12-13","2016-07-30","231","Y","1","2016-02-04","54","2016-12-09","363","Y","Y","Screening","0","2015-12-13","1","Vital Signs","Diastolic Blood Pressure (mmHg)","74.4690073269022","60","80"
"02-009","Clinical Site 02","02","27","F","Black","Treatment B","TRTB","Ongoing","2015-12-13","2016-07-30","231","Y","1","2016-02-04","54","2016-12-09","363","Y","Y","Screening","0","2015-12-13","1","Vital Signs","Heart Rate (beats/minute)","61.0061478483","50","80"
"02-009","Clinical Site 02","02","27","F","Black","Treatment B","TRTB","Ongoing","2015-12-13","2016-07-30","231","Y","1","2016-02-04","54","2016-12-09","363","Y","Y","Screening","0","2015-12-13","1","Vital Signs","Respiratory Rate (breaths/minute)","22.2271922936784","16","20"
"02-009","Clinical Site 02","02","27","F","Black","Treatment B","TRTB","Ongoing","2015-12-13","2016-07-30","231","Y","1","2016-02-04","54","2016-12-09","363","Y","Y","Screening","0","2015-12-13","1","Vital Signs","Systolic Blood Pressure (mmHg)","99.4636511561727","90","120"
"02-009","Clinical Site 02","02","27","F","Black","Treatment B","TRTB","Ongoing","2015-12-13","2016-07-30","231","Y","1","2016-02-04","54","2016-12-09","363","Y","Y","Screening","0","2015-12-13","1","Vital Signs","Temperature (°C)","36.5731934737826","36.6","37"
"02-009","Clinical Site 02","02","27","F","Black","Treatment B","TRTB","Ongoing","2015-12-13","2016-07-30","231","Y","1","2016-02-04","54","2016-12-09","363","Y","Y","Visit 1","1","2016-02-04","54","Vital Signs","Diastolic Blood Pressure (mmHg)","","60","80"
"02-009","Clinical Site 02","02","27","F","Black","Treatment B","TRTB","Ongoing","2015-12-13","2016-07-30","231","Y","1","2016-02-04","54","2016-12-09","363","Y","Y","Visit 1","1","2016-02-04","54","Vital Signs","Heart Rate (beats/minute)","103.481801521004","50","80"
"02-009","Clinical Site 02","02","27","F","Black","Treatment B","TRTB","Ongoing","2015-12-13","2016-07-30","231","Y","1","2016-02-04","54","2016-12-09","363","Y","Y","Visit 1","1","2016-02-04","54","Vital Signs","Respiratory Rate (breaths/minute)","18.9209448218196","16","20"
"02-009","Clinical Site 02","02","27","F","Black","Treatment B","TRTB","Ongoing","2015-12-13","2016-07-30","231","Y","1","2016-02-04","54","2016-12-09","363","Y","Y","Visit 1","1","2016-02-04","54","Vital Signs","Systolic Blood Pressure (mmHg)","90.3848364333373","90","120"
"02-009","Clinical Site 02","02","27","F","Black","Treatment B","TRTB","Ongoing","2015-12-13","2016-07-30","231","Y","1","2016-02-04","54","2016-12-09","363","Y","Y","Visit 1","1","2016-02-04","54","Vital Signs","Temperature (°C)","37.0135298360553","36.6","37"
"02-009","Clinical Site 02","02","27","F","Black","Treatment B","TRTB","Ongoing","2015-12-13","2016-07-30","231","Y","1","2016-02-04","54","2016-12-09","363","Y","Y","Visit 2","2","2016-03-26","105","Vital Signs","Diastolic Blood Pressure (mmHg)","66.770123326536","60","80"
"02-009","Clinical Site 02","02","27","F","Black","Treatment B","TRTB","Ongoing","2015-12-13","2016-07-30","231","Y","1","2016-02-04","54","2016-12-09","363","Y","Y","Visit 2","2","2016-03-26","105","Vital Signs","Heart Rate (beats/minute)","95.4664442749653","50","80"
"02-009","Clinical Site 02","02","27","F","Black","Treatment B","TRTB","Ongoing","2015-12-13","2016-07-30","231","Y","1","2016-02-04","54","2016-12-09","363","Y","Y","Visit 2","2","2016-03-26","105","Vital Signs","Respiratory Rate (breaths/minute)","18.7589639224769","16","20"
"02-009","Clinical Site 02","02","27","F","Black","Treatment B","TRTB","Ongoing","2015-12-13","2016-07-30","231","Y","1","2016-02-04","54","2016-12-09","363","Y","Y","Visit 2","2","2016-03-26","105","Vital Signs","Systolic Blood Pressure (mmHg)","66.9493424592054","90","120"
"02-009","Clinical Site 02","02","27","F","Black","Treatment B","TRTB","Ongoing","2015-12-13","2016-07-30","231","Y","1","2016-02-04","54","2016-12-09","363","Y","Y","Visit 2","2","2016-03-26","105","Vital Signs","Temperature (°C)","36.6972278830658","36.6","37"
"02-009","Clinical Site 02","02","27","F","Black","Treatment B","TRTB","Ongoing","2015-12-13","2016-07-30","231","Y","1","2016-02-04","54","2016-12-09","363","Y","Y","Unscheduled 2.1","2.1","2016-04-03","113","Vital Signs","Diastolic Blood Pressure (mmHg)","66.6095175398832","60","80"
"02-009","Clinical Site 02","02","27","F","Black","Treatment B","TRTB","Ongoing","2015-12-13","2016-07-30","231","Y","1","2016-02-04","54","2016-12-09","363","Y","Y","Unscheduled 2.1","2.1","2016-04-03","113","Vital Signs","Heart Rate (beats/minute)","28.1499213984163","50","80"
"02-009","Clinical Site 02","02","27","F","Black","Treatment B","TRTB","Ongoing","2015-12-13","2016-07-30","231","Y","1","2016-02-04","54","2016-12-09","363","Y","Y","Unscheduled 2.1","2.1","2016-04-03","113","Vital Signs","Respiratory Rate (breaths/minute)","21.9622912527618","16","20"
"02-009","Clinical Site 02","02","27","F","Black","Treatment B","TRTB","Ongoing","2015-12-13","2016-07-30","231","Y","1","2016-02-04","54","2016-12-09","363","Y","Y","Unscheduled 2.1","2.1","2016-04-03","113","Vital Signs","Systolic Blood Pressure (mmHg)","104.877872418321","90","120"
"02-009","Clinical Site 02","02","27","F","Black","Treatment B","TRTB","Ongoing","2015-12-13","2016-07-30","231","Y","1","2016-02-04","54","2016-12-09","363","Y","Y","Unscheduled 2.1","2.1","2016-04-03","113","Vital Signs","Temperature (°C)","36.9264238637118","36.6","37"
"02-009","Clinical Site 02","02","27","F","Black","Treatment B","TRTB","Ongoing","2015-12-13","2016-07-30","231","Y","1","2016-02-04","54","2016-12-09","363","Y","Y","Visit 3","3","2016-06-03","174","Vital Signs","Diastolic Blood Pressure (mmHg)","66.9780252894091","60","80"
"02-009","Clinical Site 02","02","27","F","Black","Treatment B","TRTB","Ongoing","2015-12-13","2016-07-30","231","Y","1","2016-02-04","54","2016-12-09","363","Y","Y","Visit 3","3","2016-06-03","174","Vital Signs","Heart Rate (beats/minute)","68.3532348199582","50","80"
"02-009","Clinical Site 02","02","27","F","Black","Treatment B","TRTB","Ongoing","2015-12-13","2016-07-30","231","Y","1","2016-02-04","54","2016-12-09","363","Y","Y","Visit 3","3","2016-06-03","174","Vital Signs","Respiratory Rate (breaths/minute)","","16","20"
"02-009","Clinical Site 02","02","27","F","Black","Treatment B","TRTB","Ongoing","2015-12-13","2016-07-30","231","Y","1","2016-02-04","54","2016-12-09","363","Y","Y","Visit 3","3","2016-06-03","174","Vital Signs","Systolic Blood Pressure (mmHg)","88.9202478208037","90","120"
"02-009","Clinical Site 02","02","27","F","Black","Treatment B","TRTB","Ongoing","2015-12-13","2016-07-30","231","Y","1","2016-02-04","54","2016-12-09","363","Y","Y","Visit 3","3","2016-06-03","174","Vital Signs","Temperature (°C)","36.6865294870385","36.6","37"
"02-010","Clinical Site 02","02","36","F","White","Treatment B","TRTB","Completed","2015-07-26","2016-07-18","359","Y","1","2015-09-13","50","2016-07-26","367","Y","Y","Screening","0","2015-07-26","1","Vital Signs","Diastolic Blood Pressure (mmHg)","68.9640378381402","60","80"
"02-010","Clinical Site 02","02","36","F","White","Treatment B","TRTB","Completed","2015-07-26","2016-07-18","359","Y","1","2015-09-13","50","2016-07-26","367","Y","Y","Screening","0","2015-07-26","1","Vital Signs","Heart Rate (beats/minute)","63.2297004542053","50","80"
"02-010","Clinical Site 02","02","36","F","White","Treatment B","TRTB","Completed","2015-07-26","2016-07-18","359","Y","1","2015-09-13","50","2016-07-26","367","Y","Y","Screening","0","2015-07-26","1","Vital Signs","Respiratory Rate (breaths/minute)","18.8295564406574","16","20"
"02-010","Clinical Site 02","02","36","F","White","Treatment B","TRTB","Completed","2015-07-26","2016-07-18","359","Y","1","2015-09-13","50","2016-07-26","367","Y","Y","Screening","0","2015-07-26","1","Vital Signs","Systolic Blood Pressure (mmHg)","126.061684851796","90","120"
"02-010","Clinical Site 02","02","36","F","White","Treatment B","TRTB","Completed","2015-07-26","2016-07-18","359","Y","1","2015-09-13","50","2016-07-26","367","Y","Y","Screening","0","2015-07-26","1","Vital Signs","Temperature (°C)","36.5813913936408","36.6","37"
"02-010","Clinical Site 02","02","36","F","White","Treatment B","TRTB","Completed","2015-07-26","2016-07-18","359","Y","1","2015-09-13","50","2016-07-26","367","Y","Y","Unscheduled 0.1","0.1","2015-08-03","9","Vital Signs","Diastolic Blood Pressure (mmHg)","68.0810244859391","60","80"
"02-010","Clinical Site 02","02","36","F","White","Treatment B","TRTB","Completed","2015-07-26","2016-07-18","359","Y","1","2015-09-13","50","2016-07-26","367","Y","Y","Unscheduled 0.1","0.1","2015-08-03","9","Vital Signs","Heart Rate (beats/minute)","61.510408924029","50","80"
"02-010","Clinical Site 02","02","36","F","White","Treatment B","TRTB","Completed","2015-07-26","2016-07-18","359","Y","1","2015-09-13","50","2016-07-26","367","Y","Y","Unscheduled 0.1","0.1","2015-08-03","9","Vital Signs","Respiratory Rate (breaths/minute)","","16","20"
"02-010","Clinical Site 02","02","36","F","White","Treatment B","TRTB","Completed","2015-07-26","2016-07-18","359","Y","1","2015-09-13","50","2016-07-26","367","Y","Y","Unscheduled 0.1","0.1","2015-08-03","9","Vital Signs","Systolic Blood Pressure (mmHg)","89.2734808415666","90","120"
"02-010","Clinical Site 02","02","36","F","White","Treatment B","TRTB","Completed","2015-07-26","2016-07-18","359","Y","1","2015-09-13","50","2016-07-26","367","Y","Y","Unscheduled 0.1","0.1","2015-08-03","9","Vital Signs","Temperature (°C)","36.7035145586772","36.6","37"
"02-010","Clinical Site 02","02","36","F","White","Treatment B","TRTB","Completed","2015-07-26","2016-07-18","359","Y","1","2015-09-13","50","2016-07-26","367","Y","Y","Visit 1","1","2015-09-13","50","Vital Signs","Diastolic Blood Pressure (mmHg)","","60","80"
"02-010","Clinical Site 02","02","36","F","White","Treatment B","TRTB","Completed","2015-07-26","2016-07-18","359","Y","1","2015-09-13","50","2016-07-26","367","Y","Y","Visit 1","1","2015-09-13","50","Vital Signs","Heart Rate (beats/minute)","87.4941240400668","50","80"
"02-010","Clinical Site 02","02","36","F","White","Treatment B","TRTB","Completed","2015-07-26","2016-07-18","359","Y","1","2015-09-13","50","2016-07-26","367","Y","Y","Visit 1","1","2015-09-13","50","Vital Signs","Respiratory Rate (breaths/minute)","19.392863077759","16","20"
"02-010","Clinical Site 02","02","36","F","White","Treatment B","TRTB","Completed","2015-07-26","2016-07-18","359","Y","1","2015-09-13","50","2016-07-26","367","Y","Y","Visit 1","1","2015-09-13","50","Vital Signs","Systolic Blood Pressure (mmHg)","114.308653568857","90","120"
"02-010","Clinical Site 02","02","36","F","White","Treatment B","TRTB","Completed","2015-07-26","2016-07-18","359","Y","1","2015-09-13","50","2016-07-26","367","Y","Y","Visit 1","1","2015-09-13","50","Vital Signs","Temperature (°C)","36.6790808112568","36.6","37"
"02-010","Clinical Site 02","02","36","F","White","Treatment B","TRTB","Completed","2015-07-26","2016-07-18","359","Y","1","2015-09-13","50","2016-07-26","367","Y","Y","Visit 2","2","2015-11-07","105","Vital Signs","Diastolic Blood Pressure (mmHg)","66.1433288333886","60","80"
"02-010","Clinical Site 02","02","36","F","White","Treatment B","TRTB","Completed","2015-07-26","2016-07-18","359","Y","1","2015-09-13","50","2016-07-26","367","Y","Y","Visit 2","2","2015-11-07","105","Vital Signs","Heart Rate (beats/minute)","","50","80"
"02-010","Clinical Site 02","02","36","F","White","Treatment B","TRTB","Completed","2015-07-26","2016-07-18","359","Y","1","2015-09-13","50","2016-07-26","367","Y","Y","Visit 2","2","2015-11-07","105","Vital Signs","Respiratory Rate (breaths/minute)","17.8611171425926","16","20"
"02-010","Clinical Site 02","02","36","F","White","Treatment B","TRTB","Completed","2015-07-26","2016-07-18","359","Y","1","2015-09-13","50","2016-07-26","367","Y","Y","Visit 2","2","2015-11-07","105","Vital Signs","Systolic Blood Pressure (mmHg)","","90","120"
"02-010","Clinical Site 02","02","36","F","White","Treatment B","TRTB","Completed","2015-07-26","2016-07-18","359","Y","1","2015-09-13","50","2016-07-26","367","Y","Y","Visit 2","2","2015-11-07","105","Vital Signs","Temperature (°C)","36.3910957722068","36.6","37"
"02-010","Clinical Site 02","02","36","F","White","Treatment B","TRTB","Completed","2015-07-26","2016-07-18","359","Y","1","2015-09-13","50","2016-07-26","367","Y","Y","Visit 4","4","2016-02-28","218","Vital Signs","Diastolic Blood Pressure (mmHg)","74.5108363309825","60","80"
"02-010","Clinical Site 02","02","36","F","White","Treatment B","TRTB","Completed","2015-07-26","2016-07-18","359","Y","1","2015-09-13","50","2016-07-26","367","Y","Y","Visit 4","4","2016-02-28","218","Vital Signs","Heart Rate (beats/minute)","99.1308650896054","50","80"
"02-010","Clinical Site 02","02","36","F","White","Treatment B","TRTB","Completed","2015-07-26","2016-07-18","359","Y","1","2015-09-13","50","2016-07-26","367","Y","Y","Visit 4","4","2016-02-28","218","Vital Signs","Respiratory Rate (breaths/minute)","16.282385880738","16","20"
"02-010","Clinical Site 02","02","36","F","White","Treatment B","TRTB","Completed","2015-07-26","2016-07-18","359","Y","1","2015-09-13","50","2016-07-26","367","Y","Y","Visit 4","4","2016-02-28","218","Vital Signs","Systolic Blood Pressure (mmHg)","109.91509941637","90","120"
"02-010","Clinical Site 02","02","36","F","White","Treatment B","TRTB","Completed","2015-07-26","2016-07-18","359","Y","1","2015-09-13","50","2016-07-26","367","Y","Y","Visit 4","4","2016-02-28","218","Vital Signs","Temperature (°C)","37.1453340090584","36.6","37"
"02-010","Clinical Site 02","02","36","F","White","Treatment B","TRTB","Completed","2015-07-26","2016-07-18","359","Y","1","2015-09-13","50","2016-07-26","367","Y","Y","Visit 5","5","2016-04-28","278","Vital Signs","Diastolic Blood Pressure (mmHg)","65.997290705652","60","80"
"02-010","Clinical Site 02","02","36","F","White","Treatment B","TRTB","Completed","2015-07-26","2016-07-18","359","Y","1","2015-09-13","50","2016-07-26","367","Y","Y","Visit 5","5","2016-04-28","278","Vital Signs","Heart Rate (beats/minute)","71.7637781981268","50","80"
"02-010","Clinical Site 02","02","36","F","White","Treatment B","TRTB","Completed","2015-07-26","2016-07-18","359","Y","1","2015-09-13","50","2016-07-26","367","Y","Y","Visit 5","5","2016-04-28","278","Vital Signs","Respiratory Rate (breaths/minute)","15.6916295930105","16","20"
"02-010","Clinical Site 02","02","36","F","White","Treatment B","TRTB","Completed","2015-07-26","2016-07-18","359","Y","1","2015-09-13","50","2016-07-26","367","Y","Y","Visit 5","5","2016-04-28","278","Vital Signs","Systolic Blood Pressure (mmHg)","","90","120"
"02-010","Clinical Site 02","02","36","F","White","Treatment B","TRTB","Completed","2015-07-26","2016-07-18","359","Y","1","2015-09-13","50","2016-07-26","367","Y","Y","Visit 5","5","2016-04-28","278","Vital Signs","Temperature (°C)","36.7433512414132","36.6","37"
"02-010","Clinical Site 02","02","36","F","White","Treatment B","TRTB","Completed","2015-07-26","2016-07-18","359","Y","1","2015-09-13","50","2016-07-26","367","Y","Y","Visit 6","6","2016-06-25","336","Vital Signs","Diastolic Blood Pressure (mmHg)","79.5717898559199","60","80"
"02-010","Clinical Site 02","02","36","F","White","Treatment B","TRTB","Completed","2015-07-26","2016-07-18","359","Y","1","2015-09-13","50","2016-07-26","367","Y","Y","Visit 6","6","2016-06-25","336","Vital Signs","Heart Rate (beats/minute)","71.4461669973408","50","80"
"02-010","Clinical Site 02","02","36","F","White","Treatment B","TRTB","Completed","2015-07-26","2016-07-18","359","Y","1","2015-09-13","50","2016-07-26","367","Y","Y","Visit 6","6","2016-06-25","336","Vital Signs","Respiratory Rate (breaths/minute)","21.2142773494145","16","20"
"02-010","Clinical Site 02","02","36","F","White","Treatment B","TRTB","Completed","2015-07-26","2016-07-18","359","Y","1","2015-09-13","50","2016-07-26","367","Y","Y","Visit 6","6","2016-06-25","336","Vital Signs","Systolic Blood Pressure (mmHg)","99.7574773570415","90","120"
"02-010","Clinical Site 02","02","36","F","White","Treatment B","TRTB","Completed","2015-07-26","2016-07-18","359","Y","1","2015-09-13","50","2016-07-26","367","Y","Y","Visit 6","6","2016-06-25","336","Vital Signs","Temperature (°C)","36.5593030864636","36.6","37"
"02-010","Clinical Site 02","02","36","F","White","Treatment B","TRTB","Completed","2015-07-26","2016-07-18","359","Y","1","2015-09-13","50","2016-07-26","367","Y","Y","End of Study","7","2016-07-26","367","Vital Signs","Diastolic Blood Pressure (mmHg)","49.9709874549288","60","80"
"02-010","Clinical Site 02","02","36","F","White","Treatment B","TRTB","Completed","2015-07-26","2016-07-18","359","Y","1","2015-09-13","50","2016-07-26","367","Y","Y","End of Study","7","2016-07-26","367","Vital Signs","Heart Rate (beats/minute)","60.6545999995722","50","80"
"02-010","Clinical Site 02","02","36","F","White","Treatment B","TRTB","Completed","2015-07-26","2016-07-18","359","Y","1","2015-09-13","50","2016-07-26","367","Y","Y","End of Study","7","2016-07-26","367","Vital Signs","Respiratory Rate (breaths/minute)","17.8535995244397","16","20"
"02-010","Clinical Site 02","02","36","F","White","Treatment B","TRTB","Completed","2015-07-26","2016-07-18","359","Y","1","2015-09-13","50","2016-07-26","367","Y","Y","End of Study","7","2016-07-26","367","Vital Signs","Systolic Blood Pressure (mmHg)","","90","120"
"02-010","Clinical Site 02","02","36","F","White","Treatment B","TRTB","Completed","2015-07-26","2016-07-18","359","Y","1","2015-09-13","50","2016-07-26","367","Y","Y","End of Study","7","2016-07-26","367","Vital Signs","Temperature (°C)","36.6137402244968","36.6","37"
"02-012","Clinical Site 02","02","37","F","Other/Mixed","Treatment B","TRTB","Ongoing","2015-09-30","2016-07-25","300","Y","1","2015-11-26","58","2016-09-18","355","Y","Y","Screening","0","2015-09-30","1","Vital Signs","Diastolic Blood Pressure (mmHg)","65.8171675820428","60","80"
"02-012","Clinical Site 02","02","37","F","Other/Mixed","Treatment B","TRTB","Ongoing","2015-09-30","2016-07-25","300","Y","1","2015-11-26","58","2016-09-18","355","Y","Y","Screening","0","2015-09-30","1","Vital Signs","Heart Rate (beats/minute)","54.4192918066346","50","80"
"02-012","Clinical Site 02","02","37","F","Other/Mixed","Treatment B","TRTB","Ongoing","2015-09-30","2016-07-25","300","Y","1","2015-11-26","58","2016-09-18","355","Y","Y","Screening","0","2015-09-30","1","Vital Signs","Respiratory Rate (breaths/minute)","17.2512350994575","16","20"
"02-012","Clinical Site 02","02","37","F","Other/Mixed","Treatment B","TRTB","Ongoing","2015-09-30","2016-07-25","300","Y","1","2015-11-26","58","2016-09-18","355","Y","Y","Screening","0","2015-09-30","1","Vital Signs","Systolic Blood Pressure (mmHg)","108.251464638781","90","120"
"02-012","Clinical Site 02","02","37","F","Other/Mixed","Treatment B","TRTB","Ongoing","2015-09-30","2016-07-25","300","Y","1","2015-11-26","58","2016-09-18","355","Y","Y","Screening","0","2015-09-30","1","Vital Signs","Temperature (°C)","36.9385465494226","36.6","37"
"02-012","Clinical Site 02","02","37","F","Other/Mixed","Treatment B","TRTB","Ongoing","2015-09-30","2016-07-25","300","Y","1","2015-11-26","58","2016-09-18","355","Y","Y","Unscheduled 0.1","0.1","2015-10-08","9","Vital Signs","Diastolic Blood Pressure (mmHg)","","60","80"
"02-012","Clinical Site 02","02","37","F","Other/Mixed","Treatment B","TRTB","Ongoing","2015-09-30","2016-07-25","300","Y","1","2015-11-26","58","2016-09-18","355","Y","Y","Unscheduled 0.1","0.1","2015-10-08","9","Vital Signs","Heart Rate (beats/minute)","64.6693151314451","50","80"
"02-012","Clinical Site 02","02","37","F","Other/Mixed","Treatment B","TRTB","Ongoing","2015-09-30","2016-07-25","300","Y","1","2015-11-26","58","2016-09-18","355","Y","Y","Unscheduled 0.1","0.1","2015-10-08","9","Vital Signs","Respiratory Rate (breaths/minute)","14.5084600775651","16","20"
"02-012","Clinical Site 02","02","37","F","Other/Mixed","Treatment B","TRTB","Ongoing","2015-09-30","2016-07-25","300","Y","1","2015-11-26","58","2016-09-18","355","Y","Y","Unscheduled 0.1","0.1","2015-10-08","9","Vital Signs","Systolic Blood Pressure (mmHg)","82.7853647710836","90","120"
"02-012","Clinical Site 02","02","37","F","Other/Mixed","Treatment B","TRTB","Ongoing","2015-09-30","2016-07-25","300","Y","1","2015-11-26","58","2016-09-18","355","Y","Y","Unscheduled 0.1","0.1","2015-10-08","9","Vital Signs","Temperature (°C)","36.9611194378019","36.6","37"
"02-012","Clinical Site 02","02","37","F","Other/Mixed","Treatment B","TRTB","Ongoing","2015-09-30","2016-07-25","300","Y","1","2015-11-26","58","2016-09-18","355","Y","Y","Visit 1","1","2015-11-26","58","Vital Signs","Diastolic Blood Pressure (mmHg)","","60","80"
"02-012","Clinical Site 02","02","37","F","Other/Mixed","Treatment B","TRTB","Ongoing","2015-09-30","2016-07-25","300","Y","1","2015-11-26","58","2016-09-18","355","Y","Y","Visit 1","1","2015-11-26","58","Vital Signs","Heart Rate (beats/minute)","76.4928654620465","50","80"
"02-012","Clinical Site 02","02","37","F","Other/Mixed","Treatment B","TRTB","Ongoing","2015-09-30","2016-07-25","300","Y","1","2015-11-26","58","2016-09-18","355","Y","Y","Visit 1","1","2015-11-26","58","Vital Signs","Respiratory Rate (breaths/minute)","18.5580913204888","16","20"
"02-012","Clinical Site 02","02","37","F","Other/Mixed","Treatment B","TRTB","Ongoing","2015-09-30","2016-07-25","300","Y","1","2015-11-26","58","2016-09-18","355","Y","Y","Visit 1","1","2015-11-26","58","Vital Signs","Systolic Blood Pressure (mmHg)","106.874113067465","90","120"
"02-012","Clinical Site 02","02","37","F","Other/Mixed","Treatment B","TRTB","Ongoing","2015-09-30","2016-07-25","300","Y","1","2015-11-26","58","2016-09-18","355","Y","Y","Visit 1","1","2015-11-26","58","Vital Signs","Temperature (°C)","36.8146860852499","36.6","37"
"02-012","Clinical Site 02","02","37","F","Other/Mixed","Treatment B","TRTB","Ongoing","2015-09-30","2016-07-25","300","Y","1","2015-11-26","58","2016-09-18","355","Y","Y","Visit 2","2","2016-01-12","105","Vital Signs","Diastolic Blood Pressure (mmHg)","60.1872653192645","60","80"
"02-012","Clinical Site 02","02","37","F","Other/Mixed","Treatment B","TRTB","Ongoing","2015-09-30","2016-07-25","300","Y","1","2015-11-26","58","2016-09-18","355","Y","Y","Visit 2","2","2016-01-12","105","Vital Signs","Heart Rate (beats/minute)","70.0980694398165","50","80"
"02-012","Clinical Site 02","02","37","F","Other/Mixed","Treatment B","TRTB","Ongoing","2015-09-30","2016-07-25","300","Y","1","2015-11-26","58","2016-09-18","355","Y","Y","Visit 2","2","2016-01-12","105","Vital Signs","Respiratory Rate (breaths/minute)","16.6683801569925","16","20"
"02-012","Clinical Site 02","02","37","F","Other/Mixed","Treatment B","TRTB","Ongoing","2015-09-30","2016-07-25","300","Y","1","2015-11-26","58","2016-09-18","355","Y","Y","Visit 2","2","2016-01-12","105","Vital Signs","Systolic Blood Pressure (mmHg)","107.378166549928","90","120"
"02-012","Clinical Site 02","02","37","F","Other/Mixed","Treatment B","TRTB","Ongoing","2015-09-30","2016-07-25","300","Y","1","2015-11-26","58","2016-09-18","355","Y","Y","Visit 2","2","2016-01-12","105","Vital Signs","Temperature (°C)","36.852269700961","36.6","37"
"02-012","Clinical Site 02","02","37","F","Other/Mixed","Treatment B","TRTB","Ongoing","2015-09-30","2016-07-25","300","Y","1","2015-11-26","58","2016-09-18","355","Y","Y","Visit 3","3","2016-03-09","162","Vital Signs","Diastolic Blood Pressure (mmHg)","61.3682096140391","60","80"
"02-012","Clinical Site 02","02","37","F","Other/Mixed","Treatment B","TRTB","Ongoing","2015-09-30","2016-07-25","300","Y","1","2015-11-26","58","2016-09-18","355","Y","Y","Visit 3","3","2016-03-09","162","Vital Signs","Heart Rate (beats/minute)","81.6368732166458","50","80"
"02-012","Clinical Site 02","02","37","F","Other/Mixed","Treatment B","TRTB","Ongoing","2015-09-30","2016-07-25","300","Y","1","2015-11-26","58","2016-09-18","355","Y","Y","Visit 3","3","2016-03-09","162","Vital Signs","Respiratory Rate (breaths/minute)","","16","20"
"02-012","Clinical Site 02","02","37","F","Other/Mixed","Treatment B","TRTB","Ongoing","2015-09-30","2016-07-25","300","Y","1","2015-11-26","58","2016-09-18","355","Y","Y","Visit 3","3","2016-03-09","162","Vital Signs","Systolic Blood Pressure (mmHg)","81.8754470163172","90","120"
"02-012","Clinical Site 02","02","37","F","Other/Mixed","Treatment B","TRTB","Ongoing","2015-09-30","2016-07-25","300","Y","1","2015-11-26","58","2016-09-18","355","Y","Y","Visit 3","3","2016-03-09","162","Vital Signs","Temperature (°C)","36.58288603998","36.6","37"
"02-012","Clinical Site 02","02","37","F","Other/Mixed","Treatment B","TRTB","Ongoing","2015-09-30","2016-07-25","300","Y","1","2015-11-26","58","2016-09-18","355","Y","Y","Visit 4","4","2016-05-06","220","Vital Signs","Diastolic Blood Pressure (mmHg)","77.2372984482254","60","80"
"02-012","Clinical Site 02","02","37","F","Other/Mixed","Treatment B","TRTB","Ongoing","2015-09-30","2016-07-25","300","Y","1","2015-11-26","58","2016-09-18","355","Y","Y","Visit 4","4","2016-05-06","220","Vital Signs","Heart Rate (beats/minute)","54.2773194382837","50","80"
"02-012","Clinical Site 02","02","37","F","Other/Mixed","Treatment B","TRTB","Ongoing","2015-09-30","2016-07-25","300","Y","1","2015-11-26","58","2016-09-18","355","Y","Y","Visit 4","4","2016-05-06","220","Vital Signs","Respiratory Rate (breaths/minute)","18.4597570222858","16","20"
"02-012","Clinical Site 02","02","37","F","Other/Mixed","Treatment B","TRTB","Ongoing","2015-09-30","2016-07-25","300","Y","1","2015-11-26","58","2016-09-18","355","Y","Y","Visit 4","4","2016-05-06","220","Vital Signs","Systolic Blood Pressure (mmHg)","80.7287468564647","90","120"
"02-012","Clinical Site 02","02","37","F","Other/Mixed","Treatment B","TRTB","Ongoing","2015-09-30","2016-07-25","300","Y","1","2015-11-26","58","2016-09-18","355","Y","Y","Visit 4","4","2016-05-06","220","Vital Signs","Temperature (°C)","36.9715580287273","36.6","37"
"02-012","Clinical Site 02","02","37","F","Other/Mixed","Treatment B","TRTB","Ongoing","2015-09-30","2016-07-25","300","Y","1","2015-11-26","58","2016-09-18","355","Y","Y","Unscheduled 4.1","4.1","2016-05-14","228","Vital Signs","Diastolic Blood Pressure (mmHg)","80.1025967085207","60","80"
"02-012","Clinical Site 02","02","37","F","Other/Mixed","Treatment B","TRTB","Ongoing","2015-09-30","2016-07-25","300","Y","1","2015-11-26","58","2016-09-18","355","Y","Y","Unscheduled 4.1","4.1","2016-05-14","228","Vital Signs","Heart Rate (beats/minute)","51.499650535986","50","80"
"02-012","Clinical Site 02","02","37","F","Other/Mixed","Treatment B","TRTB","Ongoing","2015-09-30","2016-07-25","300","Y","1","2015-11-26","58","2016-09-18","355","Y","Y","Unscheduled 4.1","4.1","2016-05-14","228","Vital Signs","Respiratory Rate (breaths/minute)","19.7854249259855","16","20"
"02-012","Clinical Site 02","02","37","F","Other/Mixed","Treatment B","TRTB","Ongoing","2015-09-30","2016-07-25","300","Y","1","2015-11-26","58","2016-09-18","355","Y","Y","Unscheduled 4.1","4.1","2016-05-14","228","Vital Signs","Systolic Blood Pressure (mmHg)","104.328973081242","90","120"
"02-012","Clinical Site 02","02","37","F","Other/Mixed","Treatment B","TRTB","Ongoing","2015-09-30","2016-07-25","300","Y","1","2015-11-26","58","2016-09-18","355","Y","Y","Unscheduled 4.1","4.1","2016-05-14","228","Vital Signs","Temperature (°C)","36.9328744693738","36.6","37"
"02-013","Clinical Site 02","02","32","M","White","Treatment B","TRTB","Completed","2015-12-29","2016-12-20","358","Y","1","2016-02-24","58","2016-12-18","356","Y","Y","Screening","0","2015-12-29","1","Vital Signs","Diastolic Blood Pressure (mmHg)","66.7600733008882","60","80"
"02-013","Clinical Site 02","02","32","M","White","Treatment B","TRTB","Completed","2015-12-29","2016-12-20","358","Y","1","2016-02-24","58","2016-12-18","356","Y","Y","Screening","0","2015-12-29","1","Vital Signs","Heart Rate (beats/minute)","82.2623682646867","50","80"
"02-013","Clinical Site 02","02","32","M","White","Treatment B","TRTB","Completed","2015-12-29","2016-12-20","358","Y","1","2016-02-24","58","2016-12-18","356","Y","Y","Screening","0","2015-12-29","1","Vital Signs","Respiratory Rate (breaths/minute)","16.5396868132788","16","20"
"02-013","Clinical Site 02","02","32","M","White","Treatment B","TRTB","Completed","2015-12-29","2016-12-20","358","Y","1","2016-02-24","58","2016-12-18","356","Y","Y","Screening","0","2015-12-29","1","Vital Signs","Systolic Blood Pressure (mmHg)","105.615426847754","90","120"
"02-013","Clinical Site 02","02","32","M","White","Treatment B","TRTB","Completed","2015-12-29","2016-12-20","358","Y","1","2016-02-24","58","2016-12-18","356","Y","Y","Screening","0","2015-12-29","1","Vital Signs","Temperature (°C)","37.0527953635474","36.6","37"
"02-013","Clinical Site 02","02","32","M","White","Treatment B","TRTB","Completed","2015-12-29","2016-12-20","358","Y","1","2016-02-24","58","2016-12-18","356","Y","Y","Visit 1","1","2016-02-24","58","Vital Signs","Diastolic Blood Pressure (mmHg)","","60","80"
"02-013","Clinical Site 02","02","32","M","White","Treatment B","TRTB","Completed","2015-12-29","2016-12-20","358","Y","1","2016-02-24","58","2016-12-18","356","Y","Y","Visit 1","1","2016-02-24","58","Vital Signs","Heart Rate (beats/minute)","83.5222360503347","50","80"
"02-013","Clinical Site 02","02","32","M","White","Treatment B","TRTB","Completed","2015-12-29","2016-12-20","358","Y","1","2016-02-24","58","2016-12-18","356","Y","Y","Visit 1","1","2016-02-24","58","Vital Signs","Respiratory Rate (breaths/minute)","15.8549111013581","16","20"
"02-013","Clinical Site 02","02","32","M","White","Treatment B","TRTB","Completed","2015-12-29","2016-12-20","358","Y","1","2016-02-24","58","2016-12-18","356","Y","Y","Visit 1","1","2016-02-24","58","Vital Signs","Systolic Blood Pressure (mmHg)","112.415764975157","90","120"
"02-013","Clinical Site 02","02","32","M","White","Treatment B","TRTB","Completed","2015-12-29","2016-12-20","358","Y","1","2016-02-24","58","2016-12-18","356","Y","Y","Visit 1","1","2016-02-24","58","Vital Signs","Temperature (°C)","36.4726895677546","36.6","37"
"02-013","Clinical Site 02","02","32","M","White","Treatment B","TRTB","Completed","2015-12-29","2016-12-20","358","Y","1","2016-02-24","58","2016-12-18","356","Y","Y","Visit 3","3","2016-06-14","169","Vital Signs","Diastolic Blood Pressure (mmHg)","68.7607779474587","60","80"
"02-013","Clinical Site 02","02","32","M","White","Treatment B","TRTB","Completed","2015-12-29","2016-12-20","358","Y","1","2016-02-24","58","2016-12-18","356","Y","Y","Visit 3","3","2016-06-14","169","Vital Signs","Heart Rate (beats/minute)","67.7172564271219","50","80"
"02-013","Clinical Site 02","02","32","M","White","Treatment B","TRTB","Completed","2015-12-29","2016-12-20","358","Y","1","2016-02-24","58","2016-12-18","356","Y","Y","Visit 3","3","2016-06-14","169","Vital Signs","Respiratory Rate (breaths/minute)","","16","20"
"02-013","Clinical Site 02","02","32","M","White","Treatment B","TRTB","Completed","2015-12-29","2016-12-20","358","Y","1","2016-02-24","58","2016-12-18","356","Y","Y","Visit 3","3","2016-06-14","169","Vital Signs","Systolic Blood Pressure (mmHg)","107.504987632098","90","120"
"02-013","Clinical Site 02","02","32","M","White","Treatment B","TRTB","Completed","2015-12-29","2016-12-20","358","Y","1","2016-02-24","58","2016-12-18","356","Y","Y","Visit 3","3","2016-06-14","169","Vital Signs","Temperature (°C)","36.6968824191007","36.6","37"
"02-013","Clinical Site 02","02","32","M","White","Treatment B","TRTB","Completed","2015-12-29","2016-12-20","358","Y","1","2016-02-24","58","2016-12-18","356","Y","Y","Visit 4","4","2016-08-11","227","Vital Signs","Diastolic Blood Pressure (mmHg)","62.1918909791438","60","80"
"02-013","Clinical Site 02","02","32","M","White","Treatment B","TRTB","Completed","2015-12-29","2016-12-20","358","Y","1","2016-02-24","58","2016-12-18","356","Y","Y","Visit 4","4","2016-08-11","227","Vital Signs","Heart Rate (beats/minute)","65.3791343974638","50","80"
"02-013","Clinical Site 02","02","32","M","White","Treatment B","TRTB","Completed","2015-12-29","2016-12-20","358","Y","1","2016-02-24","58","2016-12-18","356","Y","Y","Visit 4","4","2016-08-11","227","Vital Signs","Respiratory Rate (breaths/minute)","17.484300173265","16","20"
"02-013","Clinical Site 02","02","32","M","White","Treatment B","TRTB","Completed","2015-12-29","2016-12-20","358","Y","1","2016-02-24","58","2016-12-18","356","Y","Y","Visit 4","4","2016-08-11","227","Vital Signs","Systolic Blood Pressure (mmHg)","","90","120"
"02-013","Clinical Site 02","02","32","M","White","Treatment B","TRTB","Completed","2015-12-29","2016-12-20","358","Y","1","2016-02-24","58","2016-12-18","356","Y","Y","Visit 4","4","2016-08-11","227","Vital Signs","Temperature (°C)","36.750188818427","36.6","37"
"02-013","Clinical Site 02","02","32","M","White","Treatment B","TRTB","Completed","2015-12-29","2016-12-20","358","Y","1","2016-02-24","58","2016-12-18","356","Y","Y","Visit 5","5","2016-10-08","285","Vital Signs","Diastolic Blood Pressure (mmHg)","78.5808709295165","60","80"
"02-013","Clinical Site 02","02","32","M","White","Treatment B","TRTB","Completed","2015-12-29","2016-12-20","358","Y","1","2016-02-24","58","2016-12-18","356","Y","Y","Visit 5","5","2016-10-08","285","Vital Signs","Heart Rate (beats/minute)","54.638867038153","50","80"
"02-013","Clinical Site 02","02","32","M","White","Treatment B","TRTB","Completed","2015-12-29","2016-12-20","358","Y","1","2016-02-24","58","2016-12-18","356","Y","Y","Visit 5","5","2016-10-08","285","Vital Signs","Respiratory Rate (breaths/minute)","19.434343924899","16","20"
"02-013","Clinical Site 02","02","32","M","White","Treatment B","TRTB","Completed","2015-12-29","2016-12-20","358","Y","1","2016-02-24","58","2016-12-18","356","Y","Y","Visit 5","5","2016-10-08","285","Vital Signs","Systolic Blood Pressure (mmHg)","","90","120"
"02-013","Clinical Site 02","02","32","M","White","Treatment B","TRTB","Completed","2015-12-29","2016-12-20","358","Y","1","2016-02-24","58","2016-12-18","356","Y","Y","Visit 5","5","2016-10-08","285","Vital Signs","Temperature (°C)","36.8645071614258","36.6","37"
"02-013","Clinical Site 02","02","32","M","White","Treatment B","TRTB","Completed","2015-12-29","2016-12-20","358","Y","1","2016-02-24","58","2016-12-18","356","Y","Y","Visit 6","6","2016-11-28","336","Vital Signs","Diastolic Blood Pressure (mmHg)","86.4252655165851","60","80"
"02-013","Clinical Site 02","02","32","M","White","Treatment B","TRTB","Completed","2015-12-29","2016-12-20","358","Y","1","2016-02-24","58","2016-12-18","356","Y","Y","Visit 6","6","2016-11-28","336","Vital Signs","Heart Rate (beats/minute)","55.9459197216202","50","80"
"02-013","Clinical Site 02","02","32","M","White","Treatment B","TRTB","Completed","2015-12-29","2016-12-20","358","Y","1","2016-02-24","58","2016-12-18","356","Y","Y","Visit 6","6","2016-11-28","336","Vital Signs","Respiratory Rate (breaths/minute)","17.3629101115659","16","20"
"02-013","Clinical Site 02","02","32","M","White","Treatment B","TRTB","Completed","2015-12-29","2016-12-20","358","Y","1","2016-02-24","58","2016-12-18","356","Y","Y","Visit 6","6","2016-11-28","336","Vital Signs","Systolic Blood Pressure (mmHg)","93.1903746502201","90","120"
"02-013","Clinical Site 02","02","32","M","White","Treatment B","TRTB","Completed","2015-12-29","2016-12-20","358","Y","1","2016-02-24","58","2016-12-18","356","Y","Y","Visit 6","6","2016-11-28","336","Vital Signs","Temperature (°C)","36.8102004854856","36.6","37"
"02-013","Clinical Site 02","02","32","M","White","Treatment B","TRTB","Completed","2015-12-29","2016-12-20","358","Y","1","2016-02-24","58","2016-12-18","356","Y","Y","End of Study","7","2016-12-18","356","Vital Signs","Diastolic Blood Pressure (mmHg)","47.8562700331186","60","80"
